"Time (s)"	"Linear Acceleration x (m/s^2)"	"Linear Acceleration y (m/s^2)"	"Linear Acceleration z (m/s^2)"	"Absolute acceleration (m/s^2)"
2.562242900E-2	0.000000000E0	0.000000000E0	0.000000000E0	0.000000000E0
3.062336600E-2	2.135756612E-2	-4.823923111E-3	-2.395534515E-2	3.245418965E-2
3.562607500E-2	9.461771697E-4	1.256802678E-2	-8.303928375E-2	8.399031608E-2
4.063133500E-2	1.426371094E-2	-5.274772644E-3	-1.188278198E-3	1.525413653E-2
4.563977300E-2	2.616432495E-3	3.010630608E-3	-6.609725952E-2	6.621750019E-2
5.065190800E-2	4.734684713E-3	-1.000967622E-2	-1.115131378E-2	1.571504554E-2
5.566805400E-2	6.500212941E-3	3.137290478E-3	-2.597045898E-2	2.695477879E-2
6.068831400E-2	9.709848464E-2	3.594553471E-2	1.082134247E-2	1.041023469E-1
6.571268900E-2	7.024216652E-2	1.944854856E-2	-1.138896942E-1	1.352149047E-1
7.074196000E-2	-4.776832461E-2	-2.097904682E-2	9.583377838E-2	1.091148309E-1
7.577472100E-2	5.231864750E-3	-1.419246197E-3	-6.532382965E-2	6.554837442E-2
8.081045000E-2	-2.548484504E-2	-9.997993708E-3	3.673458099E-2	4.581338937E-2
8.584857500E-2	7.602078374E-3	4.076182842E-3	-5.896377563E-2	5.959138947E-2
9.088841900E-2	-1.526155509E-2	-9.622097015E-3	2.977561951E-2	3.481504462E-2
9.592925200E-2	-5.675623193E-3	-2.481043339E-4	-1.244735718E-2	1.368250544E-2
1.009703460E-1	-1.053863764E-2	-4.941225052E-4	-7.170677185E-3	1.275639650E-2
1.060012310E-1	2.630722243E-3	3.681898117E-3	6.788253784E-3	8.158275719E-3
1.110248770E-1	2.875370905E-2	1.216402650E-2	-2.629280090E-3	3.133133317E-2
1.160485230E-1	6.377594173E-2	2.517887950E-2	-6.149578094E-2	9.210362528E-2
1.210721690E-1	-6.953627802E-3	1.403510571E-3	2.804756165E-2	2.893075346E-2
1.260958140E-1	-6.091230549E-3	-7.598340511E-3	-6.704330444E-4	9.761523887E-3
1.311194600E-1	-2.393097430E-2	-7.264703512E-3	-6.399154663E-4	2.501753265E-2
1.361431060E-1	-1.380414609E-2	-1.159405708E-2	-5.192756653E-3	1.876009943E-2
1.411667520E-1	-4.480432719E-3	-2.143770456E-3	4.212379456E-3	6.512616202E-3
1.461903980E-1	4.360528663E-3	-1.147246361E-2	-5.493164062E-4	1.228549470E-2
1.512140440E-1	3.150090203E-2	7.179290056E-3	-2.355480194E-2	3.998346819E-2
1.562376890E-1	2.128346264E-2	-6.887793541E-3	-2.268314362E-2	3.185831895E-2
1.612613350E-1	-2.140560187E-3	2.739608288E-3	1.508045197E-2	1.547602930E-2
1.662849810E-1	-6.514373235E-3	2.684533596E-3	-8.568763733E-3	1.109357883E-2
1.713086270E-1	-1.085284911E-2	2.531796694E-3	9.813308716E-4	1.118737407E-2
1.763322730E-1	-6.100432016E-3	-1.157376170E-2	5.590438843E-3	1.422744661E-2
1.813559190E-1	-1.450049691E-3	7.238030434E-3	-1.314544678E-2	1.507628932E-2
1.863795640E-1	7.806793787E-3	1.160103083E-2	-1.739025116E-2	2.231481080E-2
1.914032100E-1	7.704673335E-3	1.947760582E-3	1.720428467E-3	8.131152230E-3
1.964268560E-1	-1.644406468E-3	-7.376372814E-3	1.097869873E-2	1.332841980E-2
2.014505020E-1	-1.549628377E-2	-7.131814957E-3	-1.727390289E-2	2.427725924E-2
2.064741480E-1	-5.781753920E-3	2.320200205E-3	1.582431793E-2	1.700650009E-2
2.114977940E-1	-5.760291591E-3	2.195447683E-3	1.415252686E-3	6.324862837E-3
2.165214390E-1	-9.731389582E-4	-2.540886402E-3	1.071548462E-2	1.105552865E-2
2.215450850E-1	8.469845168E-3	-2.489358187E-3	-8.237838745E-3	1.207464983E-2
2.265687310E-1	-5.684103817E-3	-2.440601587E-3	5.985260010E-3	8.607491487E-3
2.315923770E-1	3.829534166E-3	-7.123202085E-3	-8.186340332E-3	1.150745445E-2
2.366160230E-1	-5.645942874E-3	2.389490604E-3	-7.995605469E-3	1.007551701E-2
2.416396690E-1	-1.017514244E-2	-1.177495718E-2	6.234169006E-3	1.676448637E-2
2.466633140E-1	-6.060227752E-4	2.476155758E-3	1.412391663E-3	2.914354328E-3
2.516869600E-1	8.751990274E-3	7.097154856E-3	-2.205181122E-2	2.476387124E-2
2.567106060E-1	-5.476697348E-3	2.245068550E-3	-2.826690674E-3	6.559323654E-3
2.617342520E-1	-6.482461467E-4	-7.195979357E-3	1.922607422E-3	7.476547416E-3
2.667578980E-1	4.030749202E-3	-2.420037985E-3	-2.807617188E-3	5.475969069E-3
2.717815440E-1	-1.021475811E-2	2.259403467E-3	-1.683521271E-2	1.982096300E-2
2.768051890E-1	-7.013389841E-4	2.203106880E-3	1.637363434E-2	1.653606536E-2
2.818288350E-1	-7.153004408E-4	6.795406342E-3	-2.734184265E-3	7.359685161E-3
2.868524810E-1	-7.292637601E-4	-2.746015787E-3	-1.678466797E-2	1.702343993E-2
2.918761270E-1	-5.445462652E-3	1.994997263E-3	-7.069587708E-3	9.143967843E-3
2.968997730E-1	-6.700819358E-4	6.650507450E-3	7.170677185E-3	9.802901123E-3
3.019234190E-1	4.071964882E-3	-7.648706436E-3	-2.366065979E-3	8.982309078E-3
3.069470640E-1	-6.816936657E-4	-2.819716930E-3	-7.031440735E-3	7.606357119E-3
3.119707100E-1	-5.405797623E-3	1.925170422E-3	7.214546204E-3	9.218384133E-3
3.169943560E-1	-5.289474502E-3	-2.933740616E-3	-7.034301758E-3	9.277218103E-3
3.220180020E-1	-9.939943440E-3	-2.949178219E-3	2.506256104E-3	1.066683868E-2
3.270416480E-1	9.095984511E-3	1.799553633E-3	-2.246856689E-3	9.540633757E-3
3.320652940E-1	8.870891295E-3	1.118573546E-2	7.216453552E-3	1.599658064E-2
3.370889910E-1	-1.010483038E-2	-3.200948238E-3	-1.175594330E-2	1.582895667E-2
3.421126890E-1	-5.436977372E-4	-3.110706806E-3	2.574920654E-3	4.074594512E-3
3.471363870E-1	4.152957350E-3	-7.792145014E-3	-6.898880005E-3	1.120531677E-2
3.521600850E-1	8.833144791E-3	-2.967864275E-3	-2.076148987E-3	9.546887444E-3
3.571837830E-1	-1.020406187E-2	1.731455326E-3	2.675056458E-3	1.069003008E-2
3.622074810E-1	4.132258706E-3	6.362050772E-3	7.358551025E-3	1.056879961E-2
3.672311790E-1	4.097132012E-3	6.153047085E-3	-6.909370422E-3	1.011859075E-2
3.722548770E-1	-6.082030013E-4	6.053060293E-3	2.634048462E-3	6.629303214E-3
3.772785750E-1	8.872092701E-3	1.127481461E-3	7.323265076E-3	1.155921514E-2
3.823022730E-1	-6.765956059E-4	5.876541138E-3	2.495765686E-3	6.420308693E-3
3.873259710E-1	4.028989002E-3	5.731582642E-3	-1.643753052E-2	1.786830158E-2
3.923496690E-1	8.724133484E-3	9.158253670E-4	2.688407898E-3	9.174790361E-3
3.973733660E-1	8.632604033E-3	1.029324532E-2	-2.072334290E-3	1.359291436E-2
4.023970640E-1	3.815895878E-3	-4.090517759E-3	2.683639526E-3	6.204459525E-3
4.074207620E-1	-9.375968948E-4	5.355536938E-3	-2.077102661E-3	5.820242202E-3
4.124444600E-1	-5.684149452E-3	-4.236727953E-3	7.410049438E-3	1.025515731E-2
4.174681580E-1	3.871820867E-3	-4.247635603E-3	2.587318420E-3	6.302985138E-3
4.224918560E-1	3.795790486E-3	9.934097528E-3	-1.636695862E-2	1.951849517E-2
4.275155540E-1	3.826200031E-3	-4.396140575E-3	1.695728302E-2	1.793084789E-2
4.325392520E-1	-9.267535061E-4	-4.302293062E-3	1.674938202E-2	1.731792123E-2
4.375629500E-1	-5.623997189E-3	-4.210144281E-3	-7.119178772E-3	1.000186811E-2
4.425866480E-1	-8.507724851E-4	-4.172176123E-3	-2.300262451E-3	4.839635809E-3
4.476103460E-1	1.333536301E-2	-4.135251045E-3	1.193046570E-2	1.836486372E-2
4.526340440E-1	-1.000609249E-3	-4.099339247E-3	-2.413749695E-3	4.861274392E-3
4.576577410E-1	-1.048854832E-2	5.407392979E-3	-7.122039795E-3	1.378306916E-2
4.626814390E-1	3.812517971E-3	5.972683430E-4	7.168769836E-3	8.141454644E-3
4.677051370E-1	3.742011264E-3	-4.158735275E-3	-2.386093140E-3	6.082036490E-3
4.727288350E-1	-1.064963639E-3	5.605220795E-4	-7.095336914E-3	7.196675516E-3
4.777525330E-1	-5.766717717E-3	-8.986920118E-3	-2.276420593E-3	1.091796030E-2
4.827762310E-1	-9.928327054E-4	5.763173103E-4	-6.990432739E-3	7.084067215E-3
4.877999290E-1	3.675645217E-3	-8.973389864E-3	-2.173423767E-3	9.937598517E-3
4.928236270E-1	3.556312993E-3	5.277305841E-3	-2.148628235E-3	6.716689835E-3
4.978473250E-1	3.542323597E-3	-4.323989153E-3	1.209735870E-2	1.332632831E-2
5.028710230E-1	8.272760548E-3	-9.032219648E-3	2.489089966E-3	1.249860503E-2
5.078947210E-1	8.212342858E-3	-4.157185555E-3	-1.176261902E-2	1.493599589E-2
5.129184190E-1	-1.332142390E-3	-4.126876593E-3	2.583503723E-3	5.047792116E-3
5.179421160E-1	-1.346386038E-3	5.400478840E-4	-2.182006836E-3	2.620221539E-3
5.229658140E-1	-6.051093340E-3	-8.963614702E-3	7.325172424E-3	1.306216943E-2
5.279895120E-1	-1.276783645E-3	-4.143506289E-3	-6.978034973E-3	8.215338881E-3
5.330132100E-1	-1.291974448E-3	-4.167646170E-3	2.579689026E-3	5.068852734E-3
5.380369080E-1	-1.079602819E-2	5.524754524E-4	-2.187728882E-3	1.102930693E-2
5.430606060E-1	-5.921024829E-3	5.227208138E-3	-1.639938354E-2	1.820225317E-2
5.480843040E-1	3.702095710E-3	3.673434258E-4	2.738952637E-3	4.619774387E-3
5.531080020E-1	-1.107727177E-3	3.517568111E-4	2.713203430E-3	2.951654656E-3
5.581317000E-1	8.472495712E-3	-4.409909248E-3	-6.804466248E-3	1.172737158E-2
5.631553980E-1	3.619727679E-3	3.653168678E-4	7.498741150E-3	8.334686780E-3
5.681790960E-1	8.359841071E-3	9.843736887E-3	-6.811141968E-3	1.460060799E-2
5.732027940E-1	3.456085920E-3	2.472400665E-4	2.745628357E-3	4.420874644E-3
5.782264910E-1	-1.350575127E-3	4.927992821E-3	2.722740173E-3	5.789860142E-3
5.832501890E-1	3.434568644E-3	7.098913193E-5	7.449150085E-3	8.203117591E-3
5.882738870E-1	-1.081659645E-2	-4.690408707E-3	-2.113342285E-3	1.197768376E-2
5.932975850E-1	-6.000518799E-3	-4.661470652E-3	-1.634120941E-2	1.802139449E-2
5.983212830E-1	-1.174134202E-3	-9.382396936E-3	-1.951217651E-3	9.654802625E-3
6.033449810E-1	8.306137286E-3	-4.616677761E-3	-1.932144165E-3	9.697361045E-3
6.083686790E-1	8.260058239E-3	-9.339392185E-3	-1.616573334E-2	2.041528209E-2
6.133923250E-1	-1.339820214E-3	1.756548882E-4	-1.775741577E-3	2.231419054E-3
6.184159710E-1	3.445628099E-3	-9.339332581E-3	1.249122620E-2	1.597267097E-2
6.234396160E-1	-6.112898700E-3	-9.273707867E-3	-1.611900330E-2	1.957527664E-2
6.284632620E-1	-6.038463674E-3	-9.208559990E-3	3.018379211E-3	1.141802232E-2
6.334869080E-1	3.486174159E-3	3.580152988E-4	-1.757621765E-3	3.920563670E-3
6.385105540E-1	8.180407807E-3	3.428161144E-4	-1.743316650E-3	8.371125834E-3
6.435342000E-1	8.137154393E-3	3.277659416E-4	-6.480216980E-3	1.040739757E-2
6.485578460E-1	3.291986883E-3	2.601146698E-4	3.077507019E-3	4.513965743E-3
6.535814910E-1	3.289470449E-3	1.930892467E-4	7.804870605E-3	8.471948091E-3
6.586051370E-1	-1.101878565E-2	4.930317402E-3	-1.761436462E-3	1.219935758E-2
6.636287830E-1	-1.505309716E-3	-4.677712917E-3	-6.496429443E-3	8.145584754E-3
6.686524290E-1	3.229097463E-3	-1.410025358E-2	3.058433533E-3	1.478506805E-2
6.736760750E-1	-1.525349915E-3	2.581775188E-4	-1.121997833E-2	1.132613181E-2
6.786997210E-1	-6.240176968E-3	-4.559814930E-3	-1.112461090E-2	1.354579966E-2
6.837233660E-1	-1.413648948E-3	1.644194126E-4	1.747608185E-2	1.753393492E-2
6.887470120E-1	-6.127983332E-3	-1.415491104E-2	-1.670837402E-3	1.551468285E-2
6.937706580E-1	-1.353630796E-3	1.512467861E-4	-1.115798950E-2	1.124081499E-2
6.987943040E-1	-6.121129729E-3	-4.613250494E-3	-1.562118530E-3	7.822437189E-3
7.038179500E-1	3.402775154E-3	-4.639625549E-3	7.954597473E-3	9.817363442E-3
7.088415960E-1	-1.090642530E-2	9.639948606E-3	-2.061748505E-2	2.523805483E-2
7.138652410E-1	-1.288555562E-3	-4.705697298E-3	-1.094436646E-2	1.198261739E-2
7.188888870E-1	3.445468843E-3	7.236003876E-5	-1.350402832E-3	3.701361821E-3
7.239125330E-1	-1.360598020E-3	5.948543549E-5	8.162498474E-3	8.275333639E-3
7.289361790E-1	-1.563010365E-2	-4.756927490E-3	8.096694946E-3	1.823417035E-2
7.339598250E-1	3.475107253E-3	-3.105401993E-5	1.753330231E-2	1.787439578E-2
7.389834710E-1	3.471065313E-3	-1.483261585E-4	3.136634827E-3	4.680680836E-3
7.440071160E-1	-1.083870418E-2	4.539072514E-3	-1.589107513E-2	1.976377890E-2
7.490307620E-1	-6.026520394E-3	-5.065649748E-3	7.998466492E-3	1.122297740E-2
7.540544080E-1	8.301716298E-3	-4.982978106E-3	3.179550171E-3	1.019107961E-2
7.590780540E-1	-5.995644256E-3	-5.006313324E-3	-1.109790802E-2	1.357109007E-2
7.641017000E-1	3.527213819E-3	-2.783834934E-4	-1.501083374E-3	3.843434141E-3
7.691253460E-1	3.468648531E-3	4.462838173E-3	8.012771606E-3	9.805761368E-3
7.741489910E-1	-1.235133037E-3	9.164541960E-3	-1.555442810E-3	9.377301599E-3
7.791726370E-1	-1.147258095E-3	-5.124479532E-3	7.958412170E-3	9.534821230E-3
7.841962830E-1	-1.112778671E-3	-9.897649288E-3	3.142356873E-3	1.044395253E-2
7.892199290E-1	-1.131251454E-3	1.392778754E-2	7.867813110E-3	1.603637985E-2
7.942435750E-1	3.706791438E-3	-1.000830531E-2	-6.448745728E-3	1.246967519E-2
7.992672210E-1	-5.799818784E-3	4.263252020E-3	-6.393432617E-3	9.627522856E-3
8.042908660E-1	3.775496967E-3	-5.339235067E-3	1.266574860E-2	1.425422730E-2
8.093145120E-1	-1.034743153E-3	-5.359619856E-3	3.059387207E-3	6.257481001E-3
8.143381580E-1	3.697166219E-3	4.122257233E-3	3.035545349E-3	6.314790441E-3
8.193618040E-1	-1.112421043E-3	4.023045301E-3	-1.738548279E-3	4.521606373E-3
8.243854500E-1	3.566043451E-3	3.977388144E-3	-6.475448608E-3	8.394505168E-3
8.294090960E-1	-5.993483588E-3	3.879368305E-3	3.082275391E-3	7.776359402E-3
8.344327940E-1	-5.969854072E-3	8.585810661E-3	1.255893707E-2	1.634264981E-2
8.394564910E-1	3.606880084E-3	3.751009703E-3	1.245403290E-2	1.349750322E-2
8.444801890E-1	3.549077548E-3	-9.908378124E-4	-1.140594482E-2	1.198637928E-2
8.495038870E-1	3.491756506E-3	3.756254911E-3	-6.559371948E-3	8.326294183E-3
8.545275850E-1	3.487578593E-3	3.712743521E-3	-1.753807068E-3	5.387347040E-3
8.595512830E-1	-6.018629298E-3	-1.528185606E-2	1.251316071E-2	2.064795908E-2
8.645749810E-1	3.558510914E-3	3.784745932E-3	-1.609516144E-2	1.691276215E-2
8.695986790E-1	-1.197255217E-3	3.688335419E-3	-1.706123352E-3	4.236519221E-3
8.746223770E-1	-1.536278892E-2	3.592729568E-3	3.060340881E-3	1.607136197E-2
8.796460750E-1	-5.707778968E-3	-1.075515151E-2	7.787704468E-3	1.445338596E-2
8.846697730E-1	-5.687958561E-3	-1.175671816E-3	-1.778602600E-3	6.074413883E-3
8.896934710E-1	3.832330927E-3	3.573030233E-3	-1.763343811E-3	5.528352990E-3
8.947171690E-1	8.577778004E-3	-5.971074104E-3	-1.749038696E-3	1.059675129E-2
8.997408660E-1	3.780185245E-3	-1.235157251E-3	3.017425537E-3	4.992020712E-3
9.047645640E-1	-1.030093059E-3	-6.040781736E-3	7.745742798E-3	9.876672880E-3
9.097882620E-1	8.452811278E-3	-1.251608133E-3	2.929687500E-3	9.033250261E-3
9.148119600E-1	3.708926030E-3	3.444999456E-3	-1.843452454E-3	5.387250736E-3
9.198356580E-1	-1.048092730E-3	-1.090165973E-2	1.242733002E-2	1.656451673E-2
9.248593560E-1	-1.067102887E-3	-1.426309347E-3	2.823829651E-3	3.338724430E-3
9.298830540E-1	-1.033289358E-3	3.324419260E-3	-1.145267487E-2	1.197009657E-2
9.349067520E-1	-9.997570887E-4	-1.096856594E-2	1.239871979E-2	1.658424570E-2
9.399304500E-1	8.482893929E-3	3.311038017E-3	7.546424866E-3	1.182670666E-2
9.449541480E-1	-5.868638866E-3	-6.283491850E-3	-6.767272949E-3	1.094162580E-2
9.499778460E-1	3.705821000E-3	3.258794546E-3	-6.711006165E-3	8.330093332E-3
9.550015440E-1	3.647194244E-3	7.970482111E-3	7.597923279E-3	1.159995901E-2
9.600252410E-1	3.641723655E-3	-6.308585405E-3	-6.719589233E-3	9.910261372E-3
9.650489390E-1	-1.220067032E-3	-6.320893764E-3	-1.910209656E-3	6.714995344E-3
9.700726370E-1	-1.290310174E-3	1.272371411E-2	7.607460022E-3	1.488056616E-2
9.750963350E-1	-1.256067306E-3	-1.647561789E-3	7.544517517E-3	7.823804029E-3
9.801200330E-1	-1.274777576E-3	3.105044365E-3	-2.019882202E-3	3.917433150E-3
9.851437310E-1	-6.042930298E-3	-1.118612289E-2	-6.753921509E-3	1.439659014E-2
9.901674290E-1	3.534414805E-3	-1.550406218E-3	1.230621338E-2	1.289723750E-2
9.951911270E-1	-5.918081850E-3	3.148615360E-3	-1.154994965E-2	1.335435541E-2
1.000214825E0	-1.094242558E-3	-1.693457365E-3	2.800941467E-3	3.451150203E-3
1.005238523E0	3.690830432E-3	-6.389915943E-3	7.528305054E-3	1.054175659E-2
1.010262221E0	-5.869735032E-3	3.100544214E-3	-2.034187317E-3	6.942987960E-3
1.015285919E0	-1.060103066E-2	-6.439507008E-3	-1.151943207E-2	1.692768197E-2
1.020309616E0	-5.789400078E-3	-6.450712681E-3	-1.918792725E-3	8.877534167E-3
1.025333314E0	3.839930519E-3	-6.409227848E-3	2.847671509E-3	7.995780201E-3
1.030357012E0	-9.708451107E-4	-1.117169857E-2	-1.924514771E-3	1.137774786E-2
1.035380710E0	-9.904988110E-4	-1.588761806E-3	-1.616191864E-2	1.626999896E-2
1.040404408E0	3.739611246E-3	-1.640319824E-3	7.729530334E-3	8.741909436E-3
1.045428106E0	-5.874026567E-3	-6.389886141E-3	-1.836776733E-3	8.871785715E-3
1.050451804E0	3.647812642E-3	-1.597732306E-3	-1.821517944E-3	4.379179514E-3
1.055475502E0	-1.161362045E-3	-6.347656250E-3	2.943992615E-3	7.092855150E-3
1.060499200E0	-1.126761548E-3	-6.306976080E-3	2.919197083E-3	7.040543336E-3
1.065522898E0	-5.896149203E-3	-1.576867700E-2	-1.610851288E-2	2.330021323E-2
1.070546596E0	-5.876190029E-3	3.302037716E-3	-6.470680237E-3	9.343594868E-3
1.075570294E0	3.647099249E-3	-1.541376114E-3	1.258945465E-2	1.319740663E-2
1.080593991E0	1.314512640E-2	-1.540809870E-3	-1.768112183E-3	1.335270249E-2
1.085617689E0	-1.194024459E-3	-6.291151047E-3	-1.753807068E-3	6.639285740E-3
1.090641387E0	-1.265916042E-3	-6.303548813E-3	-1.737594604E-3	6.660068023E-3
1.095665085E0	3.466489725E-3	-1.106682420E-2	-1.721382141E-3	1.172409081E-2
1.100688783E0	3.462524153E-3	-6.288468838E-3	-6.456375122E-3	9.654982835E-3
1.105712481E0	1.290799212E-2	3.201127052E-3	1.260375977E-2	1.832261540E-2
1.110736127E0	8.072881028E-3	-1.114344597E-2	2.998352051E-3	1.408324931E-2
1.115759773E0	-6.224001758E-3	-6.311714649E-3	-6.527900696E-3	1.100860696E-2
1.120783419E0	-6.252544001E-3	-6.323993206E-3	3.029823303E-3	9.395053262E-3
1.125807064E0	3.272450529E-3	-6.283432245E-3	1.725769043E-2	1.865524945E-2
1.130830710E0	-1.533596776E-3	-1.104694605E-2	-1.887321472E-3	1.131145077E-2
1.135854356E0	-1.601226628E-3	-1.096710563E-2	-1.137447357E-2	1.588143512E-2
1.140878002E0	3.188070841E-3	-1.438528299E-3	1.247787476E-2	1.295880078E-2
1.145901648E0	7.937457412E-3	3.312289715E-3	2.871513367E-3	9.067529010E-3
1.150925294E0	3.145201132E-3	-1.531213522E-3	-1.140403748E-2	1.192849428E-2
1.155948939E0	-6.410817616E-3	3.220379353E-3	2.943992615E-3	7.754773897E-3
1.160972585E0	3.168161027E-3	-6.320685148E-3	-6.582260132E-3	9.659940656E-3
1.165996231E0	3.114015795E-3	-6.332874298E-3	-1.773834229E-3	7.276598046E-3
1.171019877E0	-1.638045534E-3	-6.292313337E-3	-6.510734558E-3	9.201416456E-3
1.176043523E0	-6.455836818E-3	-6.252080202E-3	7.796287537E-3	1.189741296E-2
1.181067169E0	-1.627516933E-3	-1.513749361E-3	-1.768112183E-3	2.840153021E-3
1.186090814E0	-1.643129624E-3	-1.576635242E-2	-2.075767517E-2	2.611817034E-2
1.191114460E0	-1.604516059E-3	-6.145119667E-3	-1.580238342E-3	6.544778126E-3
1.196138106E0	-1.618889160E-3	-1.355081797E-3	3.183364868E-3	3.819798512E-3
1.201161752E0	-6.330078468E-3	-6.107091904E-3	-6.344795227E-3	1.084540877E-2
1.206185398E0	-1.448711380E-3	-1.370042562E-3	-6.290435791E-3	6.598891098E-3
1.211209044E0	3.286650404E-3	-1.423507929E-3	1.276779175E-2	1.326065428E-2
1.216232689E0	-6.270547397E-3	3.327190876E-3	3.158569336E-3	7.769589696E-3
1.221256335E0	-6.246036850E-3	-1.569122076E-3	-6.366729736E-3	9.055957595E-3
1.226279981E0	-1.092009805E-2	3.182798624E-3	1.269054413E-2	1.704196757E-2
1.231303627E0	-1.354775392E-3	-6.357997656E-3	7.833480835E-3	1.017953695E-2
1.236327273E0	3.431036137E-3	-1.618802547E-3	-1.731872559E-3	4.170361282E-3
1.241350919E0	-1.323667355E-3	3.133505583E-3	3.032684326E-3	4.557206022E-3
1.246374564E0	1.291271858E-2	-6.406873465E-3	3.006935120E-3	1.472508022E-2
1.251398210E0	3.275304101E-3	-6.313025951E-3	-1.127243042E-2	1.332852584E-2
1.256421856E0	3.220265731E-3	-1.521587372E-3	-1.675605774E-3	3.936114101E-3
1.261445502E0	-1.531248912E-3	-1.573830843E-3	2.209472656E-2	2.220357198E-2
1.266469148E0	-1.494999044E-3	3.178179264E-3	2.905845642E-3	4.558484888E-3
1.271492794E0	-1.511717215E-3	-1.111352444E-2	-1.869201660E-3	1.137055976E-2
1.276516439E0	-1.526864246E-3	3.219962120E-3	1.239967346E-2	1.290160348E-2
1.281540085E0	3.314480186E-3	-6.321161985E-3	2.793312073E-3	7.664558701E-3
1.286563731E0	-6.242950447E-3	-6.333351135E-3	-1.978874207E-3	9.110527428E-3
1.291587377E0	3.283395432E-3	-6.345450878E-3	1.229286194E-2	1.421829410E-2
1.296611023E0	3.228290007E-3	7.895678282E-3	1.219272614E-2	1.488039524E-2
1.301634669E0	-1.577389427E-3	-1.684397459E-3	-2.161979675E-3	3.162199918E-3
1.306658314E0	-1.539321616E-3	3.015816212E-3	2.608299255E-3	4.274094462E-3
1.311681960E0	-6.306704134E-3	-1.602557302E-2	1.208877563E-2	2.104119778E-2
1.316705606E0	-1.092902292E-2	-6.402134895E-3	7.236480713E-3	1.458758123E-2
1.321729252E0	-1.365059987E-3	-6.413608789E-3	-1.182651520E-2	1.352273006E-2
1.326752898E0	3.422271460E-3	-6.425023079E-3	7.278442383E-3	1.029410448E-2
1.331776596E0	-6.136056967E-3	-1.685321331E-3	1.672172546E-2	1.789155123E-2
1.336800294E0	-1.561473403E-2	3.067553043E-3	-2.421379089E-3	1.609636224E-2
1.341823991E0	-6.011725403E-3	-6.524890661E-3	-2.399444580E-3	9.190885418E-3
1.346847689E0	-1.238340512E-3	-1.784354448E-3	-2.377510071E-3	3.220242562E-3
1.351871387E0	3.495265730E-3	-1.128372550E-2	-7.108688354E-3	1.378668901E-2
1.356895085E0	-1.312638633E-3	-6.450891495E-3	-1.655101776E-2	1.781216467E-2
1.361918783E0	3.472823650E-3	3.092795610E-3	2.590179443E-3	5.323055357E-3
1.366942481E0	-6.033258513E-3	3.054827452E-3	2.568244934E-3	7.233813730E-3
1.371966179E0	-1.259693876E-3	-1.786530018E-3	-6.953239441E-3	7.288762370E-3
1.376989877E0	-1.276941039E-3	2.967178822E-3	2.606391907E-3	4.150663483E-3
1.382013575E0	8.259254508E-3	-1.873403788E-3	1.208877563E-2	1.476019726E-2
1.387037273E0	-6.143083796E-3	-6.621032953E-3	-2.264976501E-3	9.311588181E-3
1.392060971E0	1.293716207E-2	-6.578058004E-3	-2.245903015E-3	1.468622109E-2
1.397084669E0	-1.451490447E-3	-1.784414053E-3	2.523422241E-3	3.414471824E-3
1.402108366E0	8.087593131E-3	-1.834422350E-3	-6.997108459E-3	1.085052049E-2
1.407132064E0	-1.456945203E-3	2.919703722E-3	-6.938934326E-3	7.667865983E-3
1.412155762E0	3.278483637E-3	7.581532001E-3	2.622604370E-3	8.666379644E-3
1.417179460E0	-1.102967840E-2	-1.144531369E-2	2.599716187E-3	1.610613347E-2
1.422203158E0	-1.096550934E-2	2.838283777E-3	2.579689026E-3	1.161692926E-2
1.427226856E0	-6.098174490E-3	-6.804972887E-3	-2.189636230E-3	9.396270267E-3
1.432250554E0	8.229229599E-3	-2.009361982E-3	1.208209991E-2	1.475584270E-2
1.437274252E0	3.381876275E-3	-6.755858660E-3	-1.652431488E-2	1.816952657E-2
1.442297950E0	-1.087448001E-2	-1.960724592E-3	-1.638698578E-2	1.976441396E-2
1.447321648E0	-6.007904187E-3	-2.009242773E-3	-1.995086670E-3	6.641712133E-3
1.452345346E0	8.267516270E-3	-6.808400154E-3	1.227664948E-2	1.629178505E-2
1.457369044E0	-6.082220934E-3	-2.012819052E-3	-2.079010010E-3	6.735512946E-3
1.462392741E0	1.294485107E-2	2.637445927E-3	1.694488525E-2	2.148614499E-2
1.467416439E0	8.056764491E-3	2.603322268E-3	7.302284241E-3	1.118088082E-2
1.472440137E0	-1.540184021E-3	-2.234280109E-3	-7.009506226E-3	7.516472042E-3
1.477463835E0	-6.307560951E-3	-7.084161043E-3	-2.197265625E-3	9.736459267E-3
1.482487533E0	-6.284178235E-3	-2.286225557E-3	1.682472229E-2	1.810494417E-2
1.487511231E0	3.241075203E-3	-2.279311419E-3	7.183074951E-3	8.203437985E-3
1.492534929E0	3.186321817E-3	-1.177456975E-2	-2.378463745E-3	1.242780066E-2
1.497558627E0	3.237362020E-3	7.315456867E-3	7.143020630E-3	1.072469886E-2
1.502582325E0	3.182639368E-3	-2.207130194E-3	7.082939148E-3	8.072709831E-3
1.507606023E0	3.129808232E-3	7.353723049E-3	2.271652222E-3	8.308630818E-3
1.512629721E0	-1.673614606E-3	-2.274572849E-3	-7.246971130E-3	7.777741193E-3
1.517653419E0	-1.688848250E-3	-1.176980138E-2	7.066726685E-3	1.383181329E-2
1.522677116E0	-1.701083966E-3	-1.168397069E-2	-7.245063782E-3	1.385279058E-2
1.527700814E0	-1.301505268E-1	-3.044494987E-2	-8.338680267E-1	8.445128422E-1
1.532724512E0	3.377195001E-1	7.416135073E-2	2.156733513E0	2.184274207E0
1.537748210E0	-2.284932584E-1	-6.752340496E-2	-2.127708435E0	2.141007184E0
1.542771908E0	1.794841290E-1	8.046701550E-2	1.543560982E0	1.556043058E0
1.547795606E0	-1.867108196E-1	-7.626193762E-2	-9.588642120E-1	9.798455952E-1
1.552819304E0	8.182305098E-2	4.804620147E-2	5.884561539E-1	5.960571232E-1
1.557843002E0	-6.094478816E-2	-7.562980056E-2	-3.999176025E-1	4.115437070E-1
1.562866700E0	-3.190580010E-2	2.945831418E-2	4.158439636E-1	4.181052193E-1
1.567890398E0	2.011949755E-2	-3.266815841E-2	-4.047956467E-1	4.066097863E-1
1.572914096E0	-7.108146697E-2	2.888125181E-2	3.207483292E-1	3.297971988E-1
1.577937794E0	3.253071383E-2	-6.195731461E-2	-1.712713242E-1	1.850157362E-1
1.582961491E0	-4.520687461E-2	4.222670197E-2	-6.529808044E-2	8.994773583E-2
1.587985189E0	-8.956521749E-3	-7.274155319E-2	2.298278809E-1	2.412310255E-1
1.593008887E0	-6.265892647E-3	6.468406320E-2	-2.804193497E-1	2.878511788E-1
1.598032585E0	1.500145048E-1	-1.198893785E-2	2.540378571E-1	2.952682155E-1
1.603056283E0	-1.148143504E-2	4.532188177E-2	-1.756792068E-1	1.817940594E-1
1.608079981E0	3.945730627E-3	-4.016523063E-2	6.807518005E-2	7.913940031E-2
1.613103627E0	-3.819084167E-2	2.688246965E-2	1.524066925E-2	4.912723849E-2
1.618127273E0	5.227693357E-3	-1.600766182E-2	-3.239917755E-2	3.651411673E-2
1.623150919E0	-3.755023703E-2	3.012299538E-3	2.013492584E-2	4.271427733E-2
1.628174564E0	3.203516826E-4	-2.088546753E-2	5.797958374E-2	6.162740875E-2
1.633198210E0	-1.929366030E-2	2.715438604E-3	-9.452724457E-2	9.651434557E-2
1.638221856E0	-5.857098848E-3	-2.144321799E-2	1.153173447E-1	1.174402281E-1
1.643245502E0	1.243058313E-2	3.066852689E-2	-8.992958069E-2	9.582487893E-2
1.648269148E0	6.978571415E-2	6.750941277E-3	-3.664016724E-3	7.020716577E-2
1.653292794E0	-2.500142902E-2	-7.359951735E-3	2.486610413E-2	3.602170841E-2
1.658316439E0	-1.009508502E-2	-2.401709557E-3	-1.810455322E-2	2.086752975E-2
1.663340085E0	-2.423912846E-2	2.409815788E-3	3.430652618E-2	4.207469904E-2
1.668363731E0	-5.204295740E-4	-1.673194766E-2	-1.348590851E-2	2.149647989E-2
1.673387377E0	-2.477308735E-2	2.136021852E-3	-1.811599731E-2	3.076455436E-2
1.678411023E0	8.081966080E-3	-1.235771179E-2	4.380512238E-2	4.622683163E-2
1.683434669E0	1.743625477E-2	1.933455467E-3	-5.633068085E-2	5.899921046E-2
1.688458314E0	1.768316701E-2	-2.687811852E-3	2.965259552E-2	3.462939718E-2
1.693481960E0	-2.013290301E-2	-7.375925779E-3	-3.852844238E-3	2.178491390E-2
1.698505606E0	-1.513649151E-2	-1.682871580E-2	-1.332378387E-2	2.626484851E-2
1.703529252E0	-1.044509467E-2	-7.251322269E-3	1.529502869E-2	1.989018803E-2
1.708552898E0	-6.003499031E-3	-2.557426691E-3	-1.333522797E-2	1.484623645E-2
1.713576544E0	8.059741929E-3	-1.220834255E-2	5.784988403E-3	1.573115249E-2
1.718600189E0	1.282121520E-2	2.186924219E-3	-1.326847076E-2	1.858005687E-2
1.723623835E0	-1.303097233E-3	-1.209658384E-2	1.534843445E-2	1.958570507E-2
1.728647481E0	-1.071813609E-2	-7.256925106E-3	-2.278709412E-2	2.620673695E-2
1.733671127E0	-1.155937091E-3	-7.261276245E-3	1.541233063E-2	1.707636550E-2
1.738694773E0	-1.332078129E-3	-7.265657187E-3	-3.717422485E-3	8.269427817E-3
1.743718419E0	8.100665174E-3	-1.671937108E-2	5.815505981E-3	1.946736385E-2
1.748742064E0	3.359730355E-3	7.162898779E-3	-1.798820496E-2	1.965121942E-2
1.753765710E0	-1.089500077E-2	-7.109493017E-3	-3.585815430E-3	1.349459170E-2
1.758789356E0	-1.225979067E-3	-2.311348915E-3	-8.307456970E-3	8.709718698E-3
1.763813002E0	-1.079824846E-2	2.394080162E-3	-8.235931396E-3	1.379000927E-2
1.768836648E0	3.464412875E-3	-2.441763878E-3	1.336097717E-3	4.444043712E-3
1.773860294E0	1.296253689E-2	-7.184654474E-3	6.075859070E-3	1.601757428E-2
1.778883939E0	3.378814086E-3	-2.386003733E-3	-3.476142883E-3	5.403051711E-3
1.783907585E0	-6.126481108E-3	-7.129371166E-3	1.303672791E-3	9.490061472E-3
1.788931231E0	8.149922825E-3	-1.183316112E-2	1.079559326E-2	1.797191637E-2
1.793954877E0	8.106933907E-3	2.453655005E-3	-1.304817200E-2	1.555627181E-2
1.798978523E0	-1.543109305E-3	-2.330034971E-3	1.313209534E-3	3.087842058E-3
1.804002169E0	-1.506758854E-3	2.375602722E-3	1.080703735E-2	1.116717811E-2
1.809025814E0	-1.415163279E-3	-2.460151911E-3	1.215934753E-3	3.087641795E-3
1.814049460E0	-1.432553865E-3	-2.451807261E-3	-1.779747009E-2	1.802258336E-2
1.819073106E0	3.355344757E-3	-1.199829578E-2	1.356124878E-3	1.253221907E-2
1.824096752E0	-1.452832483E-3	2.237260342E-3	-3.402709961E-3	4.323712657E-3
1.829120450E0	-1.415797509E-3	-1.204666495E-2	-3.374099731E-3	1.259012185E-2
1.834144148E0	-1.431745477E-3	-2.456426620E-3	1.404762268E-3	3.171322103E-3
1.839167846E0	-1.448998228E-3	7.053971291E-3	6.144523621E-3	9.466428965E-3
1.844191544E0	-1.411995851E-3	-1.207381487E-2	1.343727112E-3	1.223014065E-2
1.849215241E0	-1.482087187E-3	-7.286995649E-3	-2.241992950E-2	2.362096795E-2
1.854238939E0	-6.249951199E-3	-2.487391233E-3	1.102447510E-2	1.291464503E-2
1.859262637E0	3.329124302E-3	-1.203358173E-2	-3.318786621E-3	1.291915255E-2
1.864286335E0	8.026104420E-3	2.202153206E-3	-2.229309082E-2	2.379600238E-2
1.869310033E0	-6.323060952E-3	-1.208141446E-2	1.115036011E-2	1.761454529E-2
1.874333731E0	-1.492971554E-3	7.011115551E-3	1.554489136E-3	7.334926162E-3
1.879357429E0	-1.457041129E-3	2.136826515E-3	-7.958412170E-3	8.368113329E-3
1.884381127E0	8.082092740E-3	-2.696901560E-3	-1.264190674E-2	1.524504205E-2
1.889404825E0	-6.266101263E-3	-2.739310265E-3	1.718521118E-3	7.051323323E-3
1.894428523E0	-1.437924802E-3	-1.228338480E-2	-7.795333862E-3	1.461904237E-2
1.899452221E0	3.297345713E-3	-7.442235947E-3	1.770973206E-3	8.330408797E-3
1.904475919E0	7.993155159E-3	2.056986094E-3	1.126098633E-2	1.396178836E-2
1.909499616E0	-1.550592482E-3	-7.421761751E-3	6.414413452E-3	9.931343538E-3
1.914523314E0	-1.106891967E-2	-2.673685551E-3	-1.739215851E-2	2.078838028E-2
1.919547012E0	3.247234970E-3	-1.221826673E-2	-2.992630005E-3	1.299178244E-2
1.924570710E0	-1.504492946E-3	-1.212871075E-2	1.782417297E-3	1.235095684E-2
1.929594408E0	-1.468466595E-3	-2.590417862E-3	1.769065857E-3	3.463560718E-3
1.934618106E0	3.267058171E-3	-7.437437773E-3	-2.993583679E-3	8.657406827E-3
1.939641804E0	3.263321705E-3	-2.689242363E-3	1.128673553E-2	1.205287070E-2
1.944665502E0	3.259615973E-3	2.019405365E-3	-7.809638977E-3	8.700204323E-3
1.949689200E0	-1.493653283E-3	-2.760678530E-3	-7.744789124E-3	8.356680240E-3
1.954712898E0	-6.207311526E-3	-2.749890089E-3	1.821517944E-3	7.029263084E-3
1.959736596E0	-1.379624940E-3	-2.686500549E-3	1.805305481E-3	3.518490878E-3
1.964760294E0	-1.397311687E-3	2.022117376E-3	-2.958297729E-3	3.846162255E-3
1.969783991E0	3.390291706E-3	-2.810627222E-3	6.569862366E-3	7.909285349E-3
1.974807689E0	-1.418177038E-3	-2.799361944E-3	6.515502930E-3	7.231834611E-3
1.979831387E0	8.067959920E-3	1.910120249E-3	1.711845398E-3	8.465869790E-3
1.984855085E0	-1.477849670E-3	-2.921640873E-3	-3.050804138E-3	4.475201775E-3
1.989878783E0	-1.494718716E-3	-2.962112427E-3	1.727104187E-3	3.740478972E-3
1.994902481E0	3.293697722E-3	-2.949625254E-3	-3.037452698E-3	5.364219674E-3
1.999926179E0	3.291178495E-3	-7.688283920E-3	-1.251506805E-2	1.505219233E-2
2.004949877E0	-7.747887075E-2	-2.658787370E-2	-6.300449371E-1	6.353475531E-1
2.009973575E0	2.232437581E-1	7.814422250E-2	1.674704552E0	1.691324815E0
2.014997273E0	-1.669638008E-1	-5.940294266E-2	-1.703007698E0	1.712203504E0
2.020020971E0	1.301746219E-1	3.140214086E-2	1.176054001E0	1.183653049E0
2.025044669E0	-1.554202288E-1	-2.551525831E-2	-7.056636810E-1	7.230267676E-1
2.030068366E0	7.896376401E-2	-1.576006413E-2	3.834514618E-1	3.918145980E-1
2.035092064E0	-6.430567056E-2	3.257811069E-3	-2.896366119E-1	2.967072624E-1
2.040115762E0	2.190241124E-3	-3.494776785E-2	3.351669312E-1	3.369911206E-1
2.045139460E0	1.248632558E-3	1.727652550E-2	-3.612670898E-1	3.616821085E-1
2.050163158E0	-4.740583524E-2	-2.616563439E-2	3.306579590E-1	3.350621427E-1
2.055186856E0	1.309177373E-2	-1.693186164E-2	-2.279520035E-1	2.289545771E-1
2.060210554E0	4.552599788E-2	4.923751950E-2	9.228038788E-2	1.140728706E-1
2.065234252E0	8.908968419E-2	-1.247435808E-2	-4.628181458E-2	1.011661396E-1
2.070257950E0	-7.216212153E-2	6.884872913E-3	-2.690124512E-2	7.732043875E-2
2.075281648E0	9.704317898E-3	-4.048429430E-2	7.783985138E-2	8.827340672E-2
2.080305346E0	-1.864711754E-2	2.652823925E-3	1.173973083E-3	1.887142496E-2
2.085329044E0	-4.371725954E-3	-6.988912821E-3	-7.959938049E-2	8.002511022E-2
2.090352741E0	-1.434058603E-2	-2.297133207E-3	1.253614426E-1	1.261999228E-1
2.095376439E0	-5.536923185E-3	6.895810366E-3	-1.369800568E-1	1.372652384E-1
2.100400137E0	-1.111085713E-2	-2.992004156E-3	1.017227173E-1	1.023714533E-1
2.105423835E0	6.000877172E-2	2.557957172E-2	-7.016372681E-2	9.580352672E-2
2.110447481E0	7.851660252E-3	6.455421448E-3	-3.067016602E-3	1.061732667E-2
2.115471127E0	-1.066481415E-2	-1.240405440E-2	2.545928955E-2	3.026176219E-2
2.120494773E0	-1.979115233E-2	6.743937731E-3	-4.601955414E-2	5.054670879E-2
2.125518419E0	-5.453542806E-3	-1.238125563E-2	3.513240814E-2	3.764734681E-2
2.130542064E0	-5.804548971E-3	-1.719933748E-2	1.586914062E-3	1.822164358E-2
2.135565710E0	7.942450233E-3	-7.776856422E-3	-3.167629242E-2	3.357006871E-2
2.140589356E0	2.199627459E-2	6.476193666E-3	1.609897614E-2	2.801703433E-2
2.145613002E0	7.848162204E-3	-3.092050552E-3	-2.204322815E-2	2.360208325E-2
2.150636648E0	-1.573679037E-2	-2.202993631E-2	-2.856254578E-3	2.722357169E-2
2.155660294E0	-1.082969084E-2	-1.235648990E-2	1.142024994E-2	2.000967653E-2
2.160683939E0	-1.423137262E-3	-2.816349268E-3	-3.143215179E-2	3.159014576E-2
2.165707585E0	-1.597031020E-3	-2.910405397E-3	2.584552765E-2	2.605786382E-2
2.170731231E0	1.258752123E-2	-7.701992989E-3	-1.712703705E-2	2.260756034E-2
2.175754877E0	3.058155999E-3	-2.898991108E-3	2.018928528E-3	4.672530359E-3
2.180778523E0	-1.536862925E-3	-1.233637333E-2	2.000808716E-3	1.259171514E-2
2.185802169E0	-1.500567421E-3	-7.442057133E-3	-1.702022552E-2	1.863663043E-2
2.190825814E0	-1.107197907E-2	-7.444858551E-3	6.877899170E-3	1.501066742E-2
2.195849460E0	3.192971461E-3	-2.749323845E-3	1.157474518E-2	1.231781532E-2
2.200873106E0	3.138619475E-3	-2.738624811E-3	6.727218628E-3	7.912424946E-3
2.205896752E0	3.190061077E-3	1.970350742E-3	-1.233100891E-2	1.288846587E-2
2.210920398E0	-1.511397772E-3	-7.612943649E-3	6.777763367E-3	1.030433455E-2
2.215944044E0	-6.223469973E-3	-2.863407135E-3	-7.530212402E-3	1.018011678E-2
2.220967689E0	-1.449758187E-3	-2.185580134E-2	2.034187317E-3	2.199808558E-2
2.225991335E0	-6.216453388E-3	-7.485449314E-3	6.770133972E-3	1.185373182E-2
2.231014981E0	-1.388691366E-3	-1.223894954E-2	-7.537841797E-3	1.444089362E-2
2.236038627E0	-1.090692729E-2	-2.699792385E-3	-1.222419739E-2	1.660364248E-2
2.241062273E0	-1.341715455E-3	-7.493197918E-3	-1.687049866E-2	1.850842890E-2
2.246085919E0	3.392754123E-3	-2.744585276E-3	1.177787781E-2	1.256033178E-2
2.251109564E0	8.087770082E-3	-2.786576748E-3	2.179145813E-3	8.827554098E-3
2.256133210E0	-6.207799539E-3	-7.526606321E-3	6.912231445E-3	1.195681903E-2
2.261156856E0	-1.432779245E-3	-2.725064754E-3	6.855010986E-3	7.514653013E-3
2.266180502E0	-1.448582858E-3	2.036482096E-3	6.797790527E-3	7.242624364E-3
2.271204148E0	3.286777064E-3	1.954644918E-3	-7.510185242E-3	8.427717520E-3
2.276227794E0	7.982675917E-3	-2.877563238E-3	6.807327271E-3	1.087856560E-2
2.281251439E0	3.084708005E-3	1.885235310E-3	1.150226593E-2	1.205701693E-2
2.286275085E0	3.082489595E-3	-2.893656492E-3	-2.846717834E-3	5.096939516E-3
2.291298731E0	-6.421775557E-3	-2.881675959E-3	-1.707649231E-2	1.847024221E-2
2.296322377E0	-6.396003999E-3	-1.237189770E-2	-2.680778503E-3	1.418306360E-2
2.301346023E0	-6.316338666E-3	-2.831697464E-3	-1.215934753E-2	1.399158237E-2
2.306369669E0	3.263288178E-3	6.681770086E-3	-2.554893494E-3	7.862733747E-3
2.311393314E0	7.957943715E-3	1.862913370E-3	1.171970367E-2	1.428813384E-2
2.316416960E0	-1.638180576E-3	-2.968519926E-3	1.637458801E-2	1.672192808E-2
2.321440606E0	-1.704942435E-3	-7.707029581E-3	6.736755371E-3	1.037733138E-2
2.326464304E0	-1.665806398E-3	-3.009319305E-3	1.143455505E-2	1.194068519E-2
2.331488002E0	-6.378029473E-3	-1.255115867E-2	2.084255219E-2	2.515199446E-2
2.336511700E0	7.953145541E-3	-1.251143217E-2	1.116943359E-2	1.856191547E-2
2.341535398E0	-1.590266824E-3	-1.241937280E-2	-7.927894592E-3	1.481962489E-2
2.346559096E0	-1.105559152E-2	-7.577031851E-3	6.391525269E-3	1.484887574E-2
2.351582794E0	-1.437908038E-3	1.976042986E-3	-1.266574860E-2	1.289936095E-2
2.356606491E0	3.350034356E-3	-2.803653479E-3	-1.255989075E-2	1.329789677E-2
2.361630189E0	3.292934969E-3	-2.792447805E-3	-7.703781128E-3	8.831162388E-3
2.366653887E0	3.236311488E-3	-2.781331539E-3	1.862525940E-3	4.656019765E-3
2.371677585E0	-1.107006054E-2	-2.823084593E-3	-2.665710449E-2	2.900202177E-2
2.376701283E0	3.300213255E-3	-1.231381297E-2	-7.431030273E-3	1.475607022E-2
2.381724981E0	-3.481452540E-2	-7.419794798E-3	-1.831579208E-1	1.865849096E-1
2.386748679E0	1.130443960E-1	3.496789932E-2	2.649765015E-1	2.901970637E-1
2.391772377E0	-2.961357869E-2	-7.820165157E-2	8.694839478E-2	1.206336840E-1
2.396796075E0	3.906898201E-2	1.123211086E-1	-4.506397247E-1	4.660671393E-1
2.401819773E0	-7.024356723E-2	-1.872575581E-1	3.750247955E-1	4.250213513E-1
2.406843471E0	-2.434058581E-3	1.705655158E-1	-2.694892883E-1	3.189404276E-1
2.411867169E0	7.007886190E-3	-1.681913733E-1	9.858608246E-2	1.950811733E-1
2.416890866E0	-6.935954094E-2	1.227477193E-1	4.076004028E-2	1.467621525E-1
2.421914564E0	4.912382364E-2	-1.208007336E-1	-7.083892822E-3	1.305991915E-1
2.426938262E0	-6.628609449E-2	8.865982294E-2	-9.252643585E-2	1.442759573E-1
2.431961960E0	8.780476637E-3	-9.299910069E-2	2.693347931E-1	2.850739558E-1
2.436985658E0	-2.246194519E-3	6.866675615E-2	-3.695297241E-1	3.758621899E-1
2.442009356E0	1.598577052E-1	-1.247453690E-2	3.034391403E-1	3.431987935E-1
2.447033054E0	-9.204275906E-2	2.588880062E-2	-2.169599533E-1	2.370943290E-1
2.452056752E0	4.726641625E-2	-4.059027135E-2	1.506700516E-1	1.630433951E-1
2.457080450E0	-6.675863266E-2	7.351428270E-3	-3.587913513E-2	7.614506465E-2
2.462104148E0	2.884326130E-2	-3.083562851E-2	-5.458164215E-2	6.900670524E-2
2.467127846E0	-4.775735736E-2	-2.242684364E-3	7.415676117E-2	8.823276059E-2
2.472151544E0	1.374426670E-2	-2.625471354E-2	-4.522800446E-2	5.407205597E-2
2.477175241E0	-2.055202052E-2	1.634255052E-2	-3.533840179E-2	4.402575549E-2
2.482198939E0	5.988506973E-2	-1.247003675E-2	1.027421951E-1	1.195729152E-1
2.487222637E0	1.221664995E-2	2.098420262E-2	-1.309175491E-1	1.331502458E-1
2.492246335E0	-1.534021460E-3	-1.224941015E-2	8.871555328E-2	8.957036712E-2
2.497270033E0	-2.979183383E-2	-7.303208113E-3	-6.881141663E-2	7.533857757E-2
2.502293731E0	3.737146035E-3	-1.200550795E-2	3.153324127E-2	3.394766246E-2
2.507317429E0	-2.984230034E-2	-7.272005081E-3	2.768516541E-3	3.084006536E-2
2.512341127E0	7.965567522E-3	-7.434278727E-3	-1.625156403E-2	1.956609566E-2
2.517364825E0	1.716284640E-2	6.763249636E-3	7.642745972E-3	1.996788442E-2
2.522388523E0	1.725541241E-2	-7.505774498E-3	-1.923561096E-3	1.891523184E-2
2.527412221E0	-6.355289370E-3	-2.599060535E-3	-3.516769409E-2	3.583171118E-2
2.532435919E0	-1.092454605E-2	-2.589553595E-3	5.064392090E-2	5.187348280E-2
2.537459616E0	-6.269657984E-3	-2.632796764E-3	-1.153945923E-2	1.339400423E-2
2.542483314E0	3.046246246E-3	2.022653818E-3	-6.688117981E-3	7.622444935E-3
2.547507012E0	7.742713206E-3	1.940995455E-3	2.187538147E-2	2.328624885E-2
2.552530710E0	3.057417460E-3	-7.589459419E-3	2.688407898E-3	8.612504446E-3
2.557554408E0	-1.109089889E-2	-7.538408041E-3	2.666473389E-3	1.367280930E-2
2.562578106E0	-1.572601870E-2	-2.736687660E-3	-2.586174011E-2	3.039122776E-2
2.567601804E0	-1.474946737E-3	-2.778738737E-3	2.186584473E-2	2.209099415E-2
2.572625502E0	3.260633908E-3	1.930594444E-3	2.168560028E-2	2.201418152E-2
2.577649200E0	3.258387558E-3	-7.599771023E-3	-7.000923157E-3	1.083450664E-2
2.582672898E0	-1.443643123E-3	-7.548600435E-3	1.206207275E-2	1.430241494E-2
2.587696596E0	8.093939163E-3	-7.550507784E-3	2.621650696E-2	2.845746398E-2
2.592720294E0	-6.254351698E-3	-7.499784231E-3	-7.259368896E-3	1.216807772E-2
2.597743991E0	3.217982128E-3	1.999974251E-3	1.180744171E-2	1.240044297E-2
2.602767689E0	-1.640280709E-3	-1.222932339E-2	2.205848694E-3	1.253445810E-2
2.607791387E0	-1.654355787E-3	6.811827421E-3	1.169204712E-2	1.363238247E-2
2.612815085E0	-1.615643501E-3	-2.759218216E-3	2.092361450E-3	3.821199488E-3
2.617838731E0	-6.328286603E-3	-7.552146912E-3	2.077102661E-3	1.006958240E-2
2.622862377E0	3.198769875E-3	-1.225242019E-2	6.811141968E-3	1.437865029E-2
2.627886023E0	-1.606662758E-3	-2.660483122E-3	-1.224994659E-2	1.263806659E-2
2.632909669E0	3.233916126E-3	-2.703130245E-3	6.858825684E-3	8.050379891E-3
2.637933314E0	-1.519139856E-3	-7.443845272E-3	1.155281067E-2	1.382700447E-2
2.642956960E0	-1.534225419E-3	-1.219770312E-2	-2.794265747E-3	1.260736809E-2
2.647980606E0	-1.550623216E-3	-7.462531328E-3	-7.519721985E-3	1.070700821E-2
2.653004252E0	3.238257021E-3	-7.412552834E-3	6.795883179E-3	1.056486044E-2
2.658027898E0	7.985792123E-3	-7.362931967E-3	1.987457275E-3	1.104244671E-2
2.663051544E0	3.140466288E-3	-2.562731504E-3	-7.531166077E-3	8.552694531E-3
2.668075189E0	-6.415513344E-3	-7.357269526E-3	-7.466316223E-3	1.228959333E-2
2.673098835E0	3.112270497E-3	-1.211184263E-2	1.635265350E-2	2.058621471E-2
2.678122481E0	-1.745112240E-3	-7.272094488E-3	-2.786636353E-3	7.980859423E-3
2.683146127E0	-1.758313738E-3	7.029414177E-3	-2.763748169E-3	7.755168265E-3
2.688169773E0	-1.771405339E-3	-2.648770809E-3	2.012252808E-3	3.768690096E-3
2.693193419E0	-6.481311284E-3	2.006739378E-3	1.997947693E-3	7.072919756E-3
2.698217064E0	-1.704012044E-3	-2.825886011E-3	-1.226997375E-2	1.270596493E-2
2.703240710E0	3.138815984E-3	-7.565587759E-3	6.836891174E-3	1.066927199E-2
2.708264356E0	-6.364479661E-3	6.685703993E-3	2.030372620E-3	9.451330711E-3
2.713288002E0	3.162879497E-3	1.866757870E-3	-1.698970795E-2	1.738213933E-2
2.718311648E0	-1.589583233E-3	6.537377834E-3	1.165962219E-2	1.346145882E-2
2.723335294E0	-1.551410183E-3	-1.733711362E-2	1.156425476E-2	2.089771208E-2
2.728358939E0	-1.567665488E-3	-7.755398750E-3	-1.703643799E-2	1.878414236E-2
2.733382585E0	3.221358173E-3	-3.004610538E-3	2.110481262E-3	4.884563862E-3
2.738406231E0	-1.531591639E-3	-1.249381900E-2	2.093315125E-3	1.276022156E-2
2.743429877E0	-1.548010856E-3	-2.952456474E-3	-1.217556000E-2	1.262369194E-2
2.748453523E0	-1.511625014E-3	-2.992659807E-3	-1.207256317E-2	1.252947742E-2
2.753477169E0	-1.475541852E-3	-7.783561945E-3	7.034301758E-3	1.059445428E-2
2.758500814E0	-1.438319683E-3	-7.730901241E-3	1.172733307E-2	1.411970037E-2
2.763524460E0	-1.401406713E-3	6.521761417E-3	-1.687431335E-2	1.814496525E-2
2.768548106E0	-1.416031271E-3	-7.797956467E-3	7.020950317E-3	1.058805993E-2
2.773571752E0	3.319058567E-3	-7.745176554E-3	1.171398163E-2	1.442987440E-2
2.778595398E0	-6.238408387E-3	-7.692843676E-3	-7.388114929E-3	1.235644873E-2
2.783619044E0	-1.515801065E-3	1.861125231E-3	2.175331116E-3	3.239368064E-3
2.788642689E0	8.076490834E-3	1.833409071E-3	6.908416748E-3	1.078505053E-2
2.793666335E0	3.230411559E-3	-2.997785807E-3	-7.400512695E-3	8.613353977E-3
2.798689981E0	-1.575283706E-3	1.766026020E-3	-7.338523865E-3	7.710661397E-3
2.803713627E0	-6.237032823E-3	-7.762908936E-3	-2.526283264E-3	1.027353107E-2
2.808737273E0	-1.461767592E-3	-7.710427046E-3	1.174736023E-2	1.412755896E-2
2.813760919E0	3.327812068E-3	-2.960056067E-3	-1.685428619E-2	1.743282043E-2
2.818784564E0	3.325005993E-3	1.750767231E-3	-1.196193695E-2	1.253829280E-2
2.823808210E0	3.322223201E-3	-7.830768824E-3	7.143974304E-3	1.110830663E-2
2.828831856E0	-1.538344659E-3	-7.830321789E-3	-2.415657043E-3	8.337616120E-3
2.833855554E0	3.197764046E-3	1.672148705E-3	-1.189613342E-2	1.243140244E-2
2.838879252E0	-1.554990187E-3	-3.105014563E-3	1.195907593E-2	1.245305613E-2
2.843902950E0	-6.269577891E-3	-3.091275692E-3	-1.664638519E-2	1.805452110E-2
2.848926648E0	3.308219835E-3	1.568049192E-3	-1.650524139E-2	1.690639199E-2
2.853950346E0	-1.550789922E-3	-3.260940313E-3	2.637863159E-3	4.471800885E-3
2.858974044E0	-6.316641346E-3	-1.274800301E-2	1.211833954E-2	1.868865141E-2
2.863997741E0	-6.291744299E-3	-7.902979851E-3	-6.986618042E-3	1.228234377E-2
2.869021439E0	-1.412126236E-3	-3.098219633E-3	-6.928443909E-3	7.719870491E-3
2.874045137E0	-6.233239546E-3	-3.137201071E-3	2.633094788E-3	7.458451177E-3
2.879068835E0	-6.261704490E-3	1.575112343E-3	-1.163959503E-2	1.331052570E-2
2.884092533E0	-1.486233436E-3	1.549780369E-3	2.710342407E-3	3.457841087E-3
2.889116231E0	3.250883892E-3	6.275624037E-3	1.219081879E-2	1.409140752E-2
2.894139929E0	-6.306013092E-3	1.460075378E-3	-6.915092468E-3	9.471859642E-3
2.899163627E0	-1.476062462E-3	-8.119106293E-3	-1.635742188E-2	1.832113255E-2
2.904187325E0	3.312196583E-3	1.385748386E-3	-1.966476440E-3	4.093650496E-3
2.909211023E0	3.258296289E-3	-3.389090300E-3	2.799987793E-3	5.471961203E-3
2.914234721E0	-1.494962722E-3	-3.373056650E-3	-1.974105835E-3	4.184437663E-3
2.919258419E0	-1.510244794E-3	-8.108198643E-3	-1.146030426E-2	1.411957146E-2
2.924282116E0	3.329523839E-3	-1.285645366E-2	7.641792297E-3	1.532224263E-2
2.929305814E0	-6.228027865E-3	-3.312140703E-3	7.579803467E-3	1.035432411E-2
2.934329512E0	-6.203867495E-3	-8.047789335E-3	-1.985549927E-3	1.035361259E-2
2.939353210E0	-1.428877003E-3	-3.294557333E-3	2.782821655E-3	4.543114997E-3
2.944376908E0	-1.444710419E-3	-3.279298544E-3	7.511138916E-3	8.322150861E-3
2.949400606E0	3.343285993E-3	-8.015215397E-3	-1.155567169E-2	1.445526850E-2
2.954424304E0	-1.096541341E-2	-7.960617542E-3	-6.708145142E-3	1.511988539E-2
2.959448002E0	-6.152184680E-3	-3.208041191E-3	1.235389709E-2	1.416896884E-2
2.964471700E0	-1.324959099E-3	-7.997214794E-3	-6.752014160E-3	1.054991262E-2
2.969495398E0	-1.288992353E-3	-1.744481921E-2	2.805709839E-3	1.771595965E-2
2.974519096E0	3.445040435E-3	-3.058582544E-3	2.781867981E-3	5.381637320E-3
2.979542794E0	-1.309775747E-3	-2.204942703E-2	7.510185242E-3	2.333014418E-2
2.984566491E0	-6.077635102E-3	-1.242849231E-2	-6.803512573E-3	1.541729071E-2
2.989590189E0	-6.054730155E-3	-7.533460855E-3	7.505416870E-3	1.223699604E-2
2.994613887E0	-1.228316687E-3	-7.535547018E-3	1.219654083E-2	1.438919174E-2
2.999637585E0	3.506647423E-3	-1.223602891E-2	-6.909370422E-3	1.448296859E-2
3.004661283E0	3.502350301E-3	-7.447928190E-3	-2.099037170E-3	8.493765302E-3
3.009684981E0	3.443983383E-3	-2.699643373E-3	2.670288086E-3	5.126356830E-3
3.014708679E0	8.138572797E-3	2.061694860E-3	-6.854057312E-3	1.083812966E-2
3.019732377E0	-6.208649836E-3	-1.222082973E-2	-2.045631409E-3	1.385931527E-2
3.024756075E0	8.068443276E-3	-7.327526808E-3	-2.029418945E-3	1.108652187E-2
3.029779773E0	-1.475934871E-3	2.223402262E-3	2.737998962E-3	3.823419893E-3
3.034803471E0	-6.137076765E-3	-2.611041069E-3	-1.628589630E-2	1.759862679E-2
3.039827169E0	-1.309977844E-3	-2.654165030E-3	2.855300903E-3	4.112587653E-3
3.044850866E0	3.475457430E-3	-7.395237684E-3	7.582664490E-3	1.114742775E-2
3.049874564E0	3.471419215E-3	-2.594769001E-3	-1.982688904E-3	4.765987078E-3
3.054898262E0	-6.087316200E-3	-2.585351467E-3	-6.717681885E-3	9.426914163E-3
3.059921960E0	-1.313298009E-3	-7.432371378E-3	-1.140975952E-2	1.368018671E-2
3.064945658E0	-1.382760704E-3	-1.213365793E-2	-1.131439209E-2	1.664791730E-2
3.069969356E0	-1.346313395E-3	-7.451742887E-3	-1.596546173E-2	1.767022920E-2
3.074993054E0	-1.311608590E-3	-2.703428268E-3	1.267528534E-2	1.302657668E-2
3.080016752E0	8.226310834E-3	-2.745777369E-3	-1.681327820E-3	8.833931545E-3
3.085040450E0	-6.068975665E-3	-2.787828445E-3	-6.416320801E-3	9.261405168E-3
3.090064148E0	8.206955157E-3	-7.580518723E-3	-6.361007690E-3	1.285615790E-2
3.095087846E0	-1.442467794E-3	-7.582277060E-3	7.946968079E-3	1.107817405E-2
3.100111544E0	3.292844631E-3	-2.780258656E-3	-1.621246338E-3	4.604465620E-3
3.105135241E0	-1.462142915E-3	1.148387790E-2	-1.607894897E-3	1.168771318E-2
3.110158939E0	-6.282836199E-3	1.873970032E-3	-6.345748901E-3	9.124380719E-3
3.115182637E0	-6.258219481E-3	1.846134663E-3	-6.293296814E-3	9.065269386E-3
3.120206335E0	-6.233807653E-3	-2.932488918E-3	-6.240844727E-3	9.295589923E-3
3.125229981E0	3.292466514E-3	1.778125763E-3	-1.093864441E-2	1.156096918E-2
3.130253627E0	-1.515181735E-3	-2.999871969E-3	1.765823364E-2	1.797521135E-2
3.135277273E0	8.024433628E-3	-2.987086773E-3	-6.243705750E-3	1.059707903E-2
3.140300919E0	3.178792074E-3	-3.027051687E-3	-2.044296265E-2	2.090890917E-2
3.145324564E0	-1.102320943E-2	-7.765054703E-3	3.481864929E-3	1.392589689E-2
3.150348210E0	-6.155394018E-3	-2.961516380E-3	-6.049156189E-3	9.124239441E-3
3.155371856E0	-1.328143291E-3	1.135674119E-2	-1.248359680E-3	1.150208403E-2
3.160395502E0	-6.041744724E-3	-3.055930138E-3	3.514289856E-3	7.628343300E-3
3.165419148E0	8.179859258E-3	-7.846325636E-3	8.237838745E-3	1.401202736E-2
3.170442794E0	-1.365448348E-3	-3.094762564E-3	-1.083374023E-2	1.134953444E-2
3.175466439E0	3.369223326E-3	-3.133833408E-3	-1.074123383E-2	1.168531907E-2
3.180490085E0	8.117102087E-3	-3.119915724E-3	1.785469055E-2	1.985978840E-2
3.185513731E0	-1.480344683E-3	-3.106117249E-3	-1.080036163E-2	1.133521928E-2
3.190537377E0	-6.194117479E-3	-1.259449124E-2	-2.021217346E-2	2.460732121E-2
3.195561023E0	3.331827000E-3	-2.999693155E-3	3.710746765E-3	5.819696877E-3
3.200584669E0	3.328984603E-3	1.764148474E-3	1.318264008E-2	1.371044703E-2
3.205608314E0	-6.174459122E-3	-7.764905691E-3	3.570556641E-3	1.054355635E-2
3.210631960E0	-6.098082289E-3	-2.961367369E-3	8.292198181E-3	1.071059545E-2
3.215655606E0	3.479722887E-3	-7.699936628E-3	-1.278877258E-3	8.545936022E-3
3.220679252E0	-1.275383867E-3	-2.949595451E-3	-1.551914215E-2	1.584835923E-2
3.225702898E0	-1.074189693E-2	-2.937227488E-3	-1.063919067E-2	1.540155944E-2
3.230726544E0	3.624198958E-3	-1.247960329E-2	1.795768738E-2	2.216650293E-2
3.235750189E0	-5.934367888E-3	1.865208149E-3	3.555297852E-3	7.164905197E-3
3.240773835E0	3.642072901E-3	-1.241561770E-2	-1.072692871E-2	1.680711925E-2
3.245797481E0	3.636644222E-3	-7.573366165E-3	-5.886077881E-3	1.025801974E-2
3.250821127E0	8.328192867E-3	-7.627725601E-3	-1.082420349E-3	1.134515880E-2
3.255844773E0	-6.023484282E-3	-1.232731342E-2	-1.073837280E-3	1.376219988E-2
3.260868419E0	-1.069939882E-2	-1.228946447E-2	8.439064026E-3	1.835009193E-2
3.265892064E0	-1.083250158E-3	-7.448256016E-3	2.262210846E-2	2.384134517E-2
3.270915710E0	-1.101963222E-3	-1.220205426E-2	-6.071090698E-3	1.367342654E-2
3.275939356E0	-1.121958718E-3	-1.216518879E-2	-1.076984406E-2	1.628619509E-2
3.280963002E0	8.414378390E-3	2.177059650E-3	8.324623108E-3	1.203497828E-2
3.285986648E0	3.618148156E-3	-7.355362177E-3	8.255004883E-3	1.163346270E-2
3.291010294E0	-1.190776005E-3	-7.306277752E-3	-6.067276001E-3	9.571388622E-3
3.296033939E0	8.292035200E-3	-2.506494522E-3	1.298809052E-2	1.561188194E-2
3.301057585E0	8.195194416E-3	-7.248848677E-3	-6.124496460E-3	1.253859942E-2
3.306081231E0	-6.101273932E-3	-1.195165515E-2	-1.082515717E-2	1.724098698E-2
3.311104877E0	-1.327138394E-3	-7.165908813E-3	3.520011902E-3	8.093332393E-3
3.316128523E0	-1.291157678E-3	-2.420037985E-3	2.249717712E-2	2.266377397E-2
3.321152169E0	-6.059170701E-3	-2.412080765E-3	-1.094818115E-2	1.274340432E-2
3.326175814E0	-6.036418490E-3	7.045209408E-3	-6.103515625E-3	1.110523421E-2
3.331199460E0	3.486772999E-3	-7.331430912E-3	1.295375824E-2	1.528748893E-2
3.336223158E0	-1.269829459E-3	2.219587564E-3	3.343582153E-3	4.209344062E-3
3.341246856E0	-1.073782705E-2	2.188950777E-3	-1.093769073E-2	1.548307185E-2
3.346270554E0	3.575573675E-3	-7.343500853E-3	8.157730103E-3	1.154384218E-2
3.351294252E0	3.518036567E-3	6.958603859E-3	8.090019226E-3	1.123597615E-2
3.356317950E0	-1.554315165E-2	-2.613663673E-3	-1.479148865E-3	1.583062482E-2
3.361341648E0	-5.939301103E-3	-2.604097128E-3	-6.217956543E-3	8.984408885E-3
3.366365346E0	3.584517166E-3	-2.647280693E-3	3.337860107E-3	5.567599885E-3
3.371389044E0	8.276499808E-3	-2.584695816E-3	3.309249878E-3	9.280745460E-3
3.376412741E0	-6.125972606E-3	-2.628028393E-3	-1.096916199E-2	1.283575429E-2
3.381436439E0	-1.351630315E-3	6.883740425E-3	3.375053406E-3	7.784842467E-3
3.386460137E0	3.330261447E-3	-2.740561962E-3	-6.153106689E-3	7.514122910E-3
3.391483835E0	-1.476263627E-3	-2.729922533E-3	3.399848938E-3	4.603347058E-3
3.396507533E0	-6.244173273E-3	-7.470369339E-3	8.122444153E-3	1.267951959E-2
3.401531231E0	-1.416183077E-3	-7.420331240E-3	-1.446723938E-3	7.691547332E-3
3.406554929E0	3.371573985E-3	-2.672314644E-3	-6.184577942E-3	7.533776013E-3
3.411578627E0	8.119433187E-3	2.036124468E-3	-1.379966736E-3	8.483826160E-3
3.416602325E0	8.022593334E-3	-1.219341159E-2	8.131980896E-3	1.670839320E-2
3.421626023E0	7.980661467E-3	-1.220932603E-2	8.067131042E-3	1.666844932E-2
3.426649721E0	-1.106505096E-2	-7.368773222E-3	-1.502037048E-3	1.337872516E-2
3.431673419E0	-6.250988692E-3	-2.568483353E-3	-6.240844727E-3	9.198918918E-3
3.436697116E0	3.275427036E-3	-2.611964941E-3	3.314971924E-3	5.342267494E-3
3.441720814E0	3.273054957E-3	2.095967531E-3	-2.046585083E-2	2.083163505E-2
3.446744512E0	7.916408591E-3	-7.435768843E-3	-1.079368591E-2	1.531221208E-2
3.451768210E0	3.124328330E-3	2.063393593E-3	8.302688599E-3	9.107889909E-3
3.456791908E0	-1.627817750E-3	-7.520735264E-3	3.483772278E-3	8.446769727E-3
3.461815606E0	-1.641992480E-3	-1.232659817E-2	-6.044387817E-3	1.382663320E-2
3.466839304E0	-1.603387296E-3	1.964330673E-3	-1.240730286E-3	2.822916481E-3
3.471863002E0	-1.512439921E-3	-7.618993521E-3	-5.979537964E-3	9.802622662E-3
3.476886700E0	-1.108230371E-2	-2.869337797E-3	-1.176834106E-3	1.150806211E-2
3.481910398E0	3.288069740E-3	-7.608681917E-3	-1.167297363E-3	8.370545159E-3
3.486934096E0	8.036623709E-3	-2.806454897E-3	1.784610748E-2	1.977238129E-2
3.491957794E0	-1.111488137E-2	-1.710101962E-2	-1.080703735E-2	2.308197384E-2
3.496981491E0	3.255762160E-3	-2.822965384E-3	8.290290833E-3	9.343342169E-3
3.502005189E0	3.253553063E-3	-7.562696934E-3	8.221626282E-3	1.163508191E-2
3.507028887E0	3.198700026E-3	-2.760857344E-3	-6.099700928E-3	7.420267282E-3
3.512052585E0	3.196966834E-3	-7.501095533E-3	-6.049156189E-3	1.015279871E-2
3.517076283E0	-1.555784605E-3	-2.699762583E-3	8.254051208E-3	8.822615547E-3
3.522099981E0	-1.570560038E-3	-2.689480782E-3	-1.081943512E-2	1.125878066E-2
3.527123679E0	-6.283582188E-3	-7.482975721E-3	-1.224517822E-3	9.847729416E-3
3.532147377E0	-1.455264166E-3	6.820291281E-3	8.287429810E-3	1.083123538E-2
3.537171075E0	-6.221909076E-3	-2.750813961E-3	3.466606140E-3	7.635213692E-3
3.542194773E0	3.305703402E-3	2.010881901E-3	-1.081562042E-2	1.148690411E-2
3.547218471E0	-6.198986433E-3	-2.769112587E-3	-1.072502136E-2	1.269336443E-2
3.552242169E0	3.326996230E-3	1.992791891E-3	3.617286682E-3	5.303290146E-3
3.557265866E0	-1.426839270E-3	1.963973045E-3	-5.914688110E-3	6.393480732E-3
3.562289564E0	3.309783526E-3	-1.237040758E-2	-1.111984253E-3	1.285372163E-2
3.567313262E0	-6.196378730E-3	1.973628998E-3	-1.102447510E-3	6.595885938E-3
3.572336960E0	3.433468752E-3	-7.557034492E-3	8.408546448E-3	1.181529227E-2
3.577360658E0	-6.072286516E-3	-7.506251335E-3	-1.066589355E-2	1.438672158E-2
3.582384356E0	-1.299830154E-3	-1.231217384E-2	1.318168640E-2	1.808413779E-2
3.587408054E0	-1.318176277E-3	1.978695393E-3	3.571510315E-3	4.290513965E-3
3.592431752E0	3.470201977E-3	-1.230314374E-2	-5.959510803E-3	1.410409220E-2
3.597455450E0	-6.034420803E-3	-7.514536381E-3	-5.908012390E-3	1.130429573E-2
3.602479148E0	3.490190953E-3	1.154002547E-2	1.314544678E-2	1.783693897E-2
3.607502846E0	-1.076850761E-2	1.929640770E-3	1.303577423E-2	1.701809858E-2
3.612526544E0	3.493924625E-3	-7.653385401E-3	-1.323699951E-3	8.516689435E-3
3.617550241E0	-6.064995192E-3	1.847594976E-3	8.191108704E-3	1.035818689E-2
3.622573939E0	-6.042192690E-3	-2.983719110E-3	8.124351501E-3	1.055536639E-2
3.627597637E0	-1.268548891E-3	-7.774770260E-3	-6.194114685E-3	1.002114393E-2
3.632621283E0	-1.287156716E-3	-7.774800062E-3	2.711677551E-2	2.823869336E-2
3.637644929E0	3.499526531E-3	-7.722228765E-3	1.263809204E-2	1.521843860E-2
3.642668575E0	3.444062546E-3	-7.670134306E-3	-6.471633911E-3	1.061011652E-2
3.647692221E0	-1.312186010E-3	6.634742022E-3	-6.417274475E-3	9.323252947E-3
3.652715866E0	-1.276327297E-3	-2.987504005E-3	1.264286041E-2	1.305358613E-2
3.657739512E0	-5.991799757E-3	-1.247686148E-2	7.785797119E-3	1.588056590E-2
3.662763158E0	3.532456234E-3	-1.238510013E-2	-6.531715393E-3	1.444064604E-2
3.667786804E0	-1.223090105E-3	-7.543087006E-3	1.252746582E-2	1.467417837E-2
3.672810450E0	-1.240639947E-3	-1.224344969E-2	1.242351532E-2	1.748670869E-2
3.677834096E0	-1.205377281E-3	-7.455289364E-3	-1.931190491E-3	7.795111968E-3
3.682857741E0	3.580624238E-3	2.044051886E-3	2.837181091E-3	5.004859098E-3
3.687881387E0	3.523043357E-3	-2.788901329E-3	1.231765747E-2	1.311161663E-2
3.692905033E0	-1.230984926E-3	1.973122358E-3	-6.789207458E-3	7.176480589E-3
3.697928679E0	-5.946834572E-3	-2.806574106E-3	-1.148414612E-2	1.323356761E-2
3.702952325E0	8.328077383E-3	-7.599085569E-3	2.866744995E-3	1.163276413E-2
3.707975971E0	-1.217025332E-3	-7.548034191E-3	-1.907348633E-3	7.879844517E-3
3.712999616E0	3.514968790E-3	-2.746254206E-3	-6.642341614E-3	8.001101166E-3
3.718023262E0	-1.240431331E-3	1.962810755E-3	-2.083778381E-2	2.096674820E-2
3.723046908E0	-1.152507029E-3	-2.764135599E-3	3.089904785E-3	4.303048878E-3
3.728070554E0	-1.170643605E-3	1.997739077E-3	-1.686096191E-3	2.864312873E-3
3.733094200E0	-1.188629307E-3	-7.585853338E-3	-6.421089172E-3	1.000941540E-2
3.738117846E0	-1.206465065E-3	-7.534831762E-3	1.263713837E-2	1.476233429E-2
3.743141491E0	-1.171488315E-3	-7.536917925E-3	-1.719474792E-3	7.818830491E-3
3.748165137E0	-1.138241030E-3	-7.538914680E-3	-6.454467773E-3	9.989543605E-3
3.753188783E0	8.347007446E-3	2.013713121E-3	-1.648902893E-3	8.743366319E-3
3.758212429E0	-1.252356917E-3	-7.622689009E-3	-6.383895874E-3	1.002137277E-2
3.763236075E0	-1.269661821E-3	-2.820342779E-3	-6.330490112E-3	7.045670983E-3
3.768259721E0	-1.232719049E-3	-7.560133934E-3	-1.102924347E-2	1.342830715E-2
3.773283366E0	-1.197523437E-3	6.743758917E-3	1.756858826E-2	1.885650127E-2
3.778307012E0	-1.162621193E-3	-7.577747107E-3	-1.108360291E-2	1.347665361E-2
3.783330658E0	-5.933144130E-3	-1.233041286E-2	-6.237983704E-3	1.503840821E-2
3.788354304E0	-5.911441520E-3	2.065867186E-3	1.281738281E-2	1.426528129E-2
3.793377950E0	-5.784592591E-3	-7.518291473E-3	7.961273193E-3	1.238418705E-2
3.798401596E0	-5.765566602E-3	-2.716749907E-3	-1.110935211E-2	1.280781764E-2
3.803425241E0	3.756803460E-3	-7.457345724E-3	7.987976074E-3	1.155566265E-2
3.808448887E0	3.697755747E-3	-2.709031105E-3	-6.329536438E-3	7.815067409E-3
3.813472533E0	-1.060605980E-3	-7.449626923E-3	-1.525878906E-3	7.677898981E-3
3.818496179E0	-1.079509035E-3	-2.701371908E-3	-6.262779236E-3	6.905443773E-3
3.823519825E0	-1.098252833E-3	-2.743721008E-3	8.044242859E-3	8.569947925E-3
3.828543471E0	-5.867874250E-3	-2.785742283E-3	-6.274223328E-3	9.030957128E-3
3.833567116E0	-1.064897235E-2	-1.227682829E-2	-6.221771240E-3	1.740205627E-2
3.838590762E0	3.716350533E-3	-2.737283707E-3	3.334045410E-3	5.693842479E-3
3.843614460E0	-1.040727831E-3	-2.779334784E-3	8.059501648E-3	8.588561176E-3
3.848638158E0	-1.007132232E-3	-1.227042079E-2	-1.101207733E-2	1.651797169E-2
3.853661856E0	-5.777512677E-3	-2.678334713E-3	-1.418113708E-3	6.524122627E-3
3.858685554E0	-5.809770897E-3	-1.227560639E-2	8.098602295E-3	1.581237836E-2
3.863709252E0	-1.039503142E-3	-1.218545437E-2	8.030891418E-3	1.463082643E-2
3.868732950E0	-1.058581285E-3	-1.214876771E-2	-1.578903198E-2	1.995010482E-2
3.873756648E0	-1.076063141E-3	-2.610415220E-3	8.099555969E-3	8.577586281E-3
3.878780346E0	-1.096274704E-3	-7.404506207E-3	8.033752441E-3	1.098042388E-2
3.883804044E0	3.688816912E-3	-1.690971851E-2	-6.284713745E-3	1.841313600E-2
3.888827741E0	-5.871728994E-3	6.974130869E-3	3.269195557E-3	9.685212561E-3
3.893851439E0	-5.850538611E-3	2.100110054E-3	-1.506805420E-3	6.396071205E-3
3.898875137E0	-1.079930924E-3	2.017796040E-3	3.257751465E-3	3.981293290E-3
3.903898835E0	-5.797040649E-3	-7.513284683E-3	-1.102256775E-2	1.454483162E-2
3.908922533E0	8.475186303E-3	6.790280342E-3	8.073806763E-3	1.353229639E-2
3.913946231E0	-1.062874869E-2	1.917839050E-3	3.256797791E-3	1.128074187E-2
3.918969929E0	-1.064412296E-3	-7.665157318E-3	-1.102161407E-2	1.346712987E-2
3.923993627E0	3.720414825E-3	-2.809792757E-3	8.073806763E-3	9.323238571E-3
3.929017325E0	-5.840394646E-3	-2.798587084E-3	3.254890442E-3	7.248214337E-3
3.934041023E0	-1.068432815E-3	-1.234218478E-2	-6.272315979E-3	1.388571286E-2
3.939064721E0	3.767652437E-3	-2.749443054E-3	8.032798767E-3	9.288729624E-3
3.944088419E0	-9.898543358E-4	-2.738744020E-3	1.746749878E-2	1.770858673E-2
3.949112116E0	-5.655049346E-3	-7.531821728E-3	-2.068424225E-2	2.272764394E-2
3.954135814E0	3.866399638E-3	1.968145370E-3	-1.100826263E-2	1.183234924E-2
3.959159512E0	-5.644399673E-3	-2.864092588E-3	3.338813782E-3	7.156112876E-3
3.964183210E0	-8.214060217E-4	-7.603466511E-3	8.062362671E-3	1.111256508E-2
3.969206908E0	-8.437400684E-4	-7.604926825E-3	-1.575756073E-2	1.751706395E-2
3.974230606E0	-8.644489571E-4	-2.855390310E-3	-1.371383667E-3	3.283476661E-3
3.979254304E0	-8.337609470E-4	1.907289028E-3	8.141517639E-3	8.403405156E-3
3.984278002E0	-5.605585873E-3	-1.237389445E-2	8.073806763E-3	1.580260145E-2
3.989301700E0	3.968115896E-3	1.917421818E-3	8.008003235E-3	9.140599871E-3
3.994325398E0	3.958532587E-3	1.836627722E-3	1.269435883E-2	1.342348418E-2
3.999349096E0	3.897804767E-3	-7.692962885E-3	-1.664161682E-3	8.783165378E-3
4.004372794E0	-8.081197739E-4	-7.693737745E-3	-1.647949219E-3	7.909639353E-3
4.009396491E0	-5.580157973E-3	-2.943456173E-3	3.118515015E-3	7.037558749E-3
4.014420189E0	-7.591396570E-4	-2.983748913E-3	7.845878601E-3	8.428336824E-3
4.019443887E0	-7.819943130E-4	-1.252573729E-2	-1.597213745E-2	2.031292161E-2
4.024467585E0	8.698847145E-3	1.766860485E-3	-6.335258484E-3	1.090537655E-2
4.029491283E0	8.705385029E-3	-7.762193680E-3	1.747226715E-2	2.100751053E-2
4.034514981E0	8.605100214E-3	-3.011345863E-3	-1.117801666E-2	1.442442408E-2
4.039538679E0	-5.747446790E-3	-2.998471260E-3	3.168106079E-3	7.215321936E-3
4.044562377E0	3.827437758E-3	1.712679863E-3	3.143310547E-3	5.240510786E-3
4.049586075E0	3.766362555E-3	1.686275005E-3	1.261997223E-2	1.327752648E-2
4.054609773E0	-5.742163397E-3	-7.894724607E-3	-1.598930359E-2	1.873384494E-2
4.059633471E0	-9.710192680E-4	1.660943031E-3	3.147125244E-3	3.688632196E-3
4.064657169E0	-9.906673804E-4	-1.267084479E-2	1.262569427E-2	1.791479516E-2
4.069680866E0	-5.709960125E-3	-3.128021955E-3	3.019332886E-3	7.176666152E-3
4.074704564E0	-5.690118298E-3	-7.917851210E-3	-6.505966187E-3	1.172166413E-2
4.079728262E0	3.884289414E-3	-3.165692091E-3	1.730537415E-2	1.801625058E-2
4.084751960E0	-5.677885376E-3	-3.204196692E-3	-1.609325409E-2	1.736370024E-2
4.089775658E0	3.843755461E-3	-7.940739393E-3	3.044128418E-3	9.332551419E-3
4.094799356E0	-9.143827483E-4	-3.188401461E-3	-1.729965210E-3	3.740959678E-3
4.099823054E0	3.762423061E-3	-7.925003767E-3	3.034591675E-3	9.282793687E-3
4.104846752E0	-1.054976881E-2	-7.871180773E-3	-1.599407196E-2	2.071384673E-2
4.109870450E0	3.762063570E-3	-3.066688776E-3	-1.607894897E-3	5.113025362E-3
4.114894148E0	3.754197620E-3	-3.105938435E-3	7.908821106E-3	9.289257485E-3
4.119917846E0	-5.755667575E-3	-1.259425282E-2	-6.410598755E-3	1.525905272E-2
4.124941544E0	3.766621463E-3	6.449937820E-3	-6.355285645E-3	9.807078605E-3
4.129965241E0	-9.908750653E-4	-1.267281175E-2	1.270389557E-2	1.797139264E-2
4.134988939E0	-1.008917578E-3	-7.881134748E-3	-1.652717590E-3	8.115520626E-3
4.140012585E0	-5.780722015E-3	-7.880270481E-3	-1.113986969E-2	1.481931532E-2
4.145036231E0	-1.009256579E-3	6.373643875E-3	-1.542091370E-3	6.634755525E-3
4.150059877E0	3.775110468E-3	-7.944792509E-3	-6.280899048E-3	1.080837083E-2
4.155083523E0	-1.053718571E-2	-7.943451405E-3	-6.226539612E-3	1.459111025E-2
4.160107169E0	-5.673419684E-3	-3.138422966E-3	-6.175041199E-3	8.953687700E-3
4.165130814E0	-5.602658726E-3	-7.928133011E-3	8.131027222E-3	1.266328084E-2
4.170154460E0	3.918356262E-3	-3.175884485E-3	-1.093959808E-2	1.204635066E-2
4.175178106E0	-8.418466896E-4	-3.161579370E-3	-1.084804535E-2	1.133068303E-2
4.180201752E0	-8.625704795E-4	-7.898479700E-3	2.725124359E-2	2.838591705E-2
4.185225398E0	3.920573741E-3	-3.146499395E-3	3.270149231E-3	5.997102042E-3
4.190249044E0	-8.894288912E-4	-7.936239243E-3	-6.257057190E-3	1.014523246E-2
4.195272689E0	3.841276281E-3	-3.236591816E-3	8.050918579E-3	9.489374058E-3
4.200296335E0	3.781525418E-3	1.529216766E-3	1.748561859E-2	1.795509109E-2
4.205319981E0	-1.028759405E-3	-3.299444914E-3	-6.412506104E-3	7.284567055E-3
4.210343627E0	3.755770624E-3	-8.087843657E-3	7.895469666E-3	1.191039333E-2
4.215367273E0	8.447764441E-3	-8.032649755E-3	1.258087158E-2	1.715128321E-2
4.220390919E0	-1.152439043E-3	1.524150372E-3	-6.527900696E-3	6.801811347E-3
4.225414564E0	-1.117911190E-3	-8.108168840E-3	-2.547550201E-2	2.675805169E-2
4.230438210E0	3.667362034E-3	-3.301769495E-3	3.242492676E-3	5.904657894E-3
4.235461856E0	-1.141971909E-3	-8.037507534E-3	7.966995239E-3	1.137447319E-2
4.240485502E0	-1.212859526E-3	-3.284364939E-3	-1.110172272E-2	1.164071856E-2
4.245509148E0	-1.176386140E-3	-1.277130842E-2	-1.506805420E-3	1.291358454E-2
4.250532794E0	8.360406384E-3	-3.227710724E-3	3.257751465E-3	9.535588919E-3
4.255556439E0	-1.186404377E-3	-3.265678883E-3	-1.102066040E-2	1.155539569E-2
4.260580085E0	8.350471035E-3	6.251394749E-3	3.324508667E-3	1.094818070E-2
4.265603731E0	8.253145963E-3	-1.281702518E-2	8.048057556E-3	1.723838111E-2
4.270627377E0	1.290622260E-2	-3.272980452E-3	-6.270408630E-3	1.471737094E-2
4.275651023E0	-1.098279003E-2	-3.257960081E-3	-1.096916199E-2	1.586059568E-2
4.280674669E0	3.281428479E-3	-8.099377155E-3	-1.372337341E-3	8.845959131E-3
4.285698314E0	-1.526129432E-3	-8.044034243E-3	3.389358521E-3	8.861337885E-3
4.290721960E0	3.262544982E-3	-1.279288530E-2	-1.564025879E-2	2.046753061E-2
4.295745606E0	-1.543414779E-3	1.501947641E-3	-1.075744629E-2	1.097089908E-2
4.300769252E0	3.192741424E-3	-3.326475620E-3	8.338928223E-3	9.528733481E-3
4.305792898E0	-1.612635329E-3	-3.310948610E-3	1.302051544E-2	1.353132646E-2
4.310816544E0	-1.626934856E-3	-3.295570612E-3	-1.340866089E-3	3.912240350E-3
4.315840189E0	7.913610898E-3	1.470714808E-3	8.172035217E-3	1.147041408E-2
4.320863835E0	7.872588933E-3	1.393586397E-3	-6.147384644E-3	1.008514142E-2
4.325887481E0	3.079433925E-3	-3.381222486E-3	3.405570984E-3	5.702060376E-3
4.330911127E0	3.078696318E-3	-3.365248442E-3	8.128166199E-3	9.320426699E-3
4.335934773E0	3.026744351E-3	1.401573420E-3	1.756191254E-2	1.787585974E-2
4.340958419E0	-6.475618109E-3	-3.426015377E-3	-6.337165833E-3	9.686634196E-3
4.345982064E0	-1.752466895E-3	-1.296430826E-2	3.219604492E-3	1.347257518E-2
4.351005762E0	3.038094379E-3	-8.170127869E-3	7.946014404E-3	1.179492059E-2
4.356029460E0	-1.765994355E-3	-3.363221884E-3	-6.373405457E-3	7.419588575E-3
4.361053158E0	-6.478826515E-3	-3.399997950E-3	-6.318092346E-3	9.667133493E-3
4.366076856E0	-1.701543108E-3	6.065547466E-3	3.237724304E-3	7.083005978E-3
4.371100554E0	3.088593483E-3	-8.250325918E-3	1.746368408E-2	1.955984533E-2
4.376124252E0	-1.717358828E-3	-3.442674875E-3	-6.436347961E-3	7.498526970E-3
4.381147950E0	3.071467392E-3	-8.177161217E-3	-6.382942200E-3	1.081858718E-2
4.386171648E0	-1.123496424E-2	-3.422856331E-3	-1.576423645E-3	1.185012568E-2
4.391195346E0	3.082576208E-3	-3.406465054E-3	-1.563072205E-3	4.852780126E-3
4.396219044E0	-6.420251913E-3	-3.442943096E-3	3.202438354E-3	7.957958482E-3
4.401242741E0	7.858607918E-3	-8.124828339E-3	7.925987244E-3	1.380549991E-2
4.406266439E0	-1.787909307E-3	-3.371000290E-3	3.110885620E-3	4.923197334E-3
4.411290137E0	7.752538659E-3	1.395970583E-3	-1.116847992E-2	1.366695040E-2
4.416313835E0	2.909163013E-3	-1.293361187E-2	3.179550171E-3	1.363272110E-2
4.421337533E0	-1.841187477E-3	1.415044069E-3	3.152847290E-3	3.915707737E-3
4.426361231E0	-1.135564875E-2	6.142079830E-3	-1.624107361E-3	1.301205702E-2
4.431384929E0	3.017003648E-3	1.274973154E-3	3.141403198E-3	4.538312639E-3
4.436408627E0	3.068009391E-3	-3.498822451E-3	7.866859436E-3	9.140126780E-3
4.441432325E0	-1.734886318E-3	1.216441393E-3	3.051757812E-3	3.715210081E-3
4.446456023E0	-6.500643678E-3	-3.609538078E-3	-6.473541260E-3	9.858695137E-3
4.451479721E0	3.185848705E-3	-8.395373821E-3	3.084182739E-3	9.494425561E-3
4.456503419E0	-1.514141448E-3	-8.390277624E-3	-1.689910889E-3	8.691673127E-3
4.461527116E0	3.221769817E-3	1.169502735E-3	7.825851440E-3	8.543505614E-3
4.466550814E0	3.167181276E-3	-3.656148911E-3	-6.490707397E-3	8.094920914E-3
4.471574512E0	3.114492632E-3	-8.388996124E-3	3.065109253E-3	9.458869650E-3
4.476598210E0	3.113464452E-3	1.118123531E-3	-1.121139526E-2	1.168927906E-2
4.481621908E0	3.059779294E-3	1.096606255E-3	3.134727478E-3	4.515673922E-3
4.486645606E0	-1.639161259E-3	-8.426815271E-3	3.108978271E-3	9.130378478E-3
4.491669304E0	3.254343756E-3	-8.368730545E-3	-6.418228149E-3	1.103721237E-2
4.496693002E0	-1.551547088E-3	1.138210297E-3	-1.586437225E-2	1.598064855E-2
4.501716700E0	-6.317389198E-3	-8.385568857E-3	8.022308350E-3	1.321304668E-2
4.506740398E0	-1.490229741E-3	-8.275181055E-3	-1.546859741E-3	8.549396542E-3
4.511764096E0	-1.570598409E-2	5.982011557E-3	-1.103496552E-2	2.010554307E-2
4.516787794E0	3.402735107E-3	1.116186380E-3	8.063316345E-3	8.822785769E-3
4.521811491E0	-6.155424751E-3	-1.315841079E-2	7.996559143E-3	1.658246021E-2
4.526835189E0	3.317532130E-3	-8.309960365E-3	-1.107406616E-2	1.423714866E-2
4.531858887E0	-1.488885842E-3	-8.358240128E-3	3.273963928E-3	9.099219685E-3
4.536882585E0	3.246814944E-3	-3.602415323E-3	3.248214722E-3	5.836960024E-3
4.541906283E0	3.243240528E-3	5.917519331E-3	-1.529693604E-3	6.919220091E-3
4.546929981E0	3.188474104E-3	5.856007338E-3	-1.101970673E-2	1.287995052E-2
4.551953679E0	3.132720478E-3	-3.759682178E-3	8.078575134E-3	9.445238159E-3
4.556977377E0	-1.566827297E-3	-3.793209791E-3	1.276493073E-2	1.340846168E-2
4.562001075E0	3.223631531E-3	-8.524894714E-3	-1.584720612E-2	1.828112611E-2
4.567024773E0	-1.108551212E-2	-8.466005325E-3	8.039474487E-3	1.609953338E-2
4.572048471E0	3.232224844E-3	-8.460313082E-3	2.222728729E-2	2.400159318E-2
4.577072169E0	-1.469595358E-3	-3.756254911E-3	-6.461143494E-3	7.616793073E-3
4.582095866E0	-6.291672587E-3	-3.789693117E-3	-6.405830383E-3	9.745849412E-3
4.587119564E0	-6.266980432E-3	-3.822982311E-3	7.902145386E-3	1.078583048E-2
4.592143262E0	-6.242494099E-3	-3.803342581E-3	-1.665115356E-3	7.497116546E-3
4.597166960E0	-6.219656207E-3	-1.333850622E-2	-1.590251923E-2	2.166771768E-2
4.602190658E0	3.305056132E-3	-1.329216361E-2	3.234863281E-3	1.407371131E-2
4.607214356E0	3.355103545E-3	1.059472561E-3	1.271057129E-2	1.318854899E-2
4.612238054E0	-1.502848230E-3	-8.516371250E-3	-1.646041870E-3	8.803214522E-3
4.617261752E0	-1.465399750E-3	-3.759235144E-3	-1.588344574E-2	1.638789474E-2
4.622285450E0	3.322770819E-3	-3.792792559E-3	1.750755310E-2	1.821923426E-2
4.627309148E0	-6.180613302E-3	-8.577167988E-3	-1.114273071E-2	1.535995570E-2
4.632332846E0	-1.458478160E-3	1.043358445E-2	-1.104831696E-2	1.526604568E-2
4.637356544E0	-6.226539612E-3	-1.817169785E-2	3.296852112E-3	1.948973146E-2
4.642380241E0	-6.202390417E-3	9.189844131E-4	1.277351379E-2	1.422943547E-2
4.647403939E0	-1.428853720E-3	-3.904521465E-3	-1.583671570E-2	1.637340755E-2
4.652427585E0	3.359011374E-3	7.615089417E-4	-1.448631287E-3	3.736493796E-3
4.657451231E0	-1.447750255E-3	-3.955423832E-3	1.281547546E-2	1.348991363E-2
4.662474877E0	3.338828683E-3	-8.685648441E-3	-6.296157837E-3	1.123520669E-2
4.667498523E0	-6.218798459E-3	-8.625477552E-3	-6.243705750E-3	1.233110615E-2
4.672522169E0	-1.391016878E-3	-3.814756870E-3	3.310203552E-3	5.238773281E-3
4.677545814E0	3.342425451E-3	-8.493483067E-3	8.032798767E-3	1.215882061E-2
4.682569460E0	-1.464199275E-3	-8.540242910E-3	-1.103591919E-2	1.403107768E-2
4.687593106E0	-1.479734667E-3	1.020789146E-3	3.309249878E-3	3.766000520E-3
4.692616752E0	3.361218609E-3	1.000076532E-3	1.278400421E-2	1.325627049E-2
4.697640398E0	-1.445562579E-3	5.730569363E-3	7.925987244E-3	9.886877676E-3
4.702664044E0	3.342442214E-3	-3.884136677E-3	3.110885620E-3	5.994668216E-3
4.707687689E0	-1.462738030E-3	-1.341873407E-2	1.258945465E-2	1.845796292E-2
4.712711335E0	-1.425622962E-3	-8.620768785E-3	-1.766204834E-3	8.914568683E-3
4.717734981E0	-6.139848381E-3	5.586653948E-3	-1.749038696E-3	8.483370606E-3
4.722758627E0	-1.366834156E-3	-8.777827024E-3	1.252079010E-2	1.535215515E-2
4.727782273E0	3.367849626E-3	-8.716881275E-3	7.664680481E-3	1.208609768E-2
4.732805919E0	-1.493097283E-3	-3.905355930E-3	-1.900672913E-3	4.592788038E-3
4.737829564E0	-1.404507086E-3	-3.937631845E-3	1.712036133E-2	1.762340366E-2
4.742853210E0	-1.081582997E-2	-8.615463972E-3	2.723693848E-3	1.409350579E-2
4.747876856E0	3.603548743E-3	9.462535381E-4	-6.800651550E-3	7.754342062E-3
4.752900502E0	-1.205252483E-3	9.261667728E-4	-1.992225647E-3	2.505869404E-3
4.757924148E0	1.308281627E-2	-3.897458315E-3	1.227951050E-2	1.836128102E-2
4.762947794E0	-1.254378818E-3	-3.877192736E-3	-2.076148987E-3	4.573454312E-3
4.767971439E0	8.228955790E-3	8.413493633E-4	-1.155948639E-2	1.421426423E-2
4.772995085E0	3.381609917E-3	7.694661617E-4	1.704502106E-2	1.739425499E-2
4.778018731E0	-1.425341703E-3	-4.000186920E-3	7.401466370E-3	8.533158781E-3
4.783042377E0	-1.564163342E-2	-4.031717777E-3	-2.160072327E-3	1.629666704E-2
4.788066023E0	-5.985739641E-3	6.881058216E-4	-2.140045166E-3	6.393931653E-3
4.793089669E0	3.589687869E-3	-4.080802202E-3	2.163219452E-2	2.230449832E-2
4.798113314E0	-1.166330650E-3	-1.831209660E-2	-7.054328918E-3	1.965850364E-2
4.803136960E0	-1.131683588E-3	-3.971278667E-3	2.508163452E-3	4.831422762E-3
4.808160606E0	-5.848357454E-3	5.551695824E-3	-2.263069153E-3	8.375326466E-3
4.813184252E0	-1.025105827E-3	-8.812487125E-3	2.508163452E-3	9.219634222E-3
4.818207898E0	-1.044303179E-3	-8.803933859E-3	-1.176357269E-2	1.473029066E-2
4.823231544E0	-5.815818906E-3	-8.742719889E-3	2.587318420E-3	1.081448645E-2
4.828255189E0	3.810861148E-3	-3.983646631E-3	7.319450378E-3	9.163321287E-3
4.833278835E0	-5.698032677E-3	-3.909975290E-3	7.257461548E-3	1.002128890E-2
4.838302481E0	-5.625621416E-3	-3.942251205E-3	-7.054328918E-3	9.846446941E-3
4.843326127E0	-8.568931371E-4	-1.822727919E-2	1.201057434E-2	2.184540840E-2
4.848349773E0	-8.248249069E-4	5.562245846E-3	-2.339363098E-3	6.090281987E-3
4.853373419E0	3.905341029E-3	-4.051059484E-3	-7.069587708E-3	9.035587521E-3
4.858397116E0	-8.547538891E-4	-8.780479431E-3	1.199340820E-2	1.488856150E-2
4.863420814E0	3.928329796E-3	-8.772194386E-3	-2.357482910E-3	9.896509233E-3
4.868444512E0	3.920521587E-3	7.381141186E-4	2.414703369E-3	4.663270776E-3
4.873468210E0	3.860109486E-3	-8.782327175E-3	7.145881653E-3	1.196216287E-2
4.878491908E0	3.800201230E-3	-4.022985697E-3	1.659011841E-2	1.748879562E-2
4.883515606E0	8.545939811E-3	-8.752763271E-3	-1.205444336E-2	1.717421197E-2
4.888539304E0	-1.003857702E-3	-3.993600607E-3	-7.201194763E-3	8.295407290E-3
4.893563002E0	-5.670373328E-3	-1.357984543E-2	1.186561584E-2	1.890391956E-2
4.898586700E0	3.851203248E-3	-8.727878332E-3	7.015228271E-3	1.184149713E-2
4.903610398E0	-1.040905900E-2	-8.720010519E-3	-7.294654846E-3	1.541424932E-2
4.908634096E0	3.903039731E-3	-8.712202311E-3	7.020950317E-3	1.185031357E-2
4.913657794E0	-9.082593024E-4	-3.900766373E-3	2.211570740E-3	4.575145724E-3
4.918681491E0	-9.284317493E-4	-8.631497622E-3	-1.681041718E-2	1.891969509E-2
4.923705189E0	-5.699467845E-3	-1.337546110E-2	2.334594727E-3	1.472539391E-2
4.928728887E0	-9.286804125E-4	5.727916956E-3	7.066726685E-3	9.143856189E-3
4.933752585E0	-8.960124105E-4	-8.637785912E-3	-7.243156433E-3	1.130829336E-2
4.938776283E0	3.885970451E-3	-8.683294058E-3	-1.668167114E-2	1.920360680E-2
4.943799981E0	3.931184299E-3	-3.872096539E-3	7.211685181E-3	9.080514564E-3
4.948823679E0	-5.580157042E-3	-8.603006601E-3	2.400398254E-3	1.053146652E-2
4.953847377E0	3.993337043E-3	-1.339986920E-2	-2.612304688E-2	2.962966104E-2
4.958871075E0	3.932319582E-3	-1.330041885E-2	-6.900787354E-3	1.549145394E-2
4.963894773E0	-8.265553042E-4	-3.752410412E-3	2.660751343E-3	4.673689686E-3
4.968918471E0	-5.545771681E-3	-1.803910732E-2	-1.161289215E-2	2.215906678E-2
4.973942169E0	-5.528740585E-3	-8.398890495E-3	-2.013206482E-3	1.025482005E-2
4.978965866E0	-7.593752816E-4	-3.590077162E-3	-1.996040344E-3	4.177257701E-3
4.983989564E0	-7.295636460E-4	-3.624975681E-3	2.773284912E-3	4.622101363E-3
4.989013262E0	3.999808803E-3	-1.310902834E-2	-1.150321960E-2	1.789327124E-2
4.994036960E0	3.937294707E-3	-8.313596249E-3	7.598876953E-3	1.193151722E-2
4.999060658E0	3.875301220E-3	-8.309125900E-3	7.537841797E-3	1.186922878E-2
5.004084356E0	3.815267235E-3	1.197308302E-3	-6.775856018E-3	7.867784696E-3
5.009108054E0	8.559431881E-3	-8.379608393E-3	2.783775330E-3	1.229760611E-2
5.014131752E0	3.761996515E-3	-3.623604774E-3	7.513999939E-3	9.151137876E-3
5.019155450E0	3.701463342E-3	-3.658205271E-3	-2.048492432E-3	5.592818423E-3
5.024179148E0	-5.859187804E-3	-8.390963078E-3	-2.031326294E-3	1.043382143E-2
5.029202846E0	8.414995857E-3	-3.582209349E-3	1.223850250E-2	1.527826307E-2
5.034226544E0	3.618765622E-3	1.186460257E-3	-2.116203308E-3	4.356772775E-3
5.039250241E0	3.613536246E-3	-3.586679697E-3	-2.099037170E-3	5.507074767E-3
5.044273939E0	-1.193907112E-3	-3.569066525E-3	7.420539856E-3	8.320340246E-3
5.049297637E0	3.592001274E-3	1.146852970E-3	7.360458374E-3	8.270072089E-3
5.054321335E0	8.338027634E-3	-3.678619862E-3	2.550125122E-3	9.463513462E-3
5.059345033E0	8.240803145E-3	-8.411198854E-3	-6.973266602E-3	1.368523108E-2
5.064368731E0	-1.357676461E-3	-3.654927015E-3	1.684188843E-2	1.728730698E-2
5.069392429E0	-6.125136279E-3	1.114368439E-3	-2.302169800E-3	6.637702708E-3
5.074416127E0	-6.049166434E-3	-3.658175468E-3	-2.283096313E-3	7.428808187E-3
5.079439825E0	3.528235480E-3	1.058489084E-3	-2.262115479E-3	4.322731912E-3
5.084463523E0	-5.978304893E-3	-8.517265320E-3	2.509117126E-3	1.070418641E-2
5.089487221E0	-5.903558806E-3	9.909272194E-4	-1.176261902E-2	1.319822524E-2
5.094510919E0	-5.883547477E-3	-8.584231138E-3	7.341384888E-3	1.273581906E-2
5.099534616E0	-1.111225225E-3	-3.773868084E-3	7.280349731E-3	8.275288154E-3
5.104558314E0	-1.131149940E-3	9.438097477E-4	-1.178264618E-2	1.187438537E-2
5.109582012E0	-1.096796244E-3	8.710622787E-4	2.570152283E-3	2.927011146E-3
5.114605710E0	3.635636531E-3	-3.952115774E-3	2.551078796E-3	5.945172420E-3
5.119629408E0	3.630267456E-3	8.196532726E-4	-6.972312927E-3	7.903405649E-3
5.124653106E0	-1.180201769E-3	-4.003018141E-3	-2.116489410E-2	2.157243085E-2
5.129676804E0	3.552926704E-3	-4.034519196E-3	1.227092743E-2	1.339687625E-2
5.134700502E0	-6.006485783E-3	-8.764147758E-3	1.216888428E-2	1.615456288E-2
5.139724200E0	-1.180471852E-3	-4.004955292E-3	-6.935119629E-3	8.095002468E-3
5.144747898E0	3.552657552E-3	7.146000862E-4	7.377624512E-3	8.219572519E-3
5.149771596E0	-1.151829958E-3	-4.107207060E-3	2.566337585E-3	4.978147315E-3
5.154795241E0	-1.067348197E-2	-4.085123539E-3	-2.120971680E-2	2.409281093E-2
5.159818887E0	-1.057544723E-3	-1.367065310E-2	-2.025604248E-3	1.386031131E-2
5.164842533E0	3.674561158E-3	-8.765250444E-3	7.492065430E-3	1.210219234E-2
5.169866179E0	-1.082166098E-3	5.548685789E-3	-6.823539734E-3	8.861133785E-3
5.174889825E0	-1.102332957E-3	-1.351383328E-2	-6.766319275E-3	1.515328032E-2
5.179913471E0	8.433844894E-3	7.869899273E-4	7.545471191E-3	1.134386303E-2
5.184937116E0	-5.918718874E-3	-4.035413265E-3	7.484436035E-3	1.036014363E-2
5.189960762E0	-1.146103255E-3	6.843805313E-4	-6.829261780E-3	6.958501695E-3
5.194984408E0	-5.916769616E-3	-4.137158394E-3	-2.018928528E-3	7.496686913E-3
5.200008054E0	3.605416976E-3	-8.865863085E-3	1.225090027E-2	1.554628950E-2
5.205031700E0	-1.152179204E-3	-8.804142475E-3	-2.103805542E-3	9.125044624E-3
5.210055346E0	-5.922794342E-3	7.064938545E-4	-2.084732056E-3	6.318602229E-3
5.215078991E0	-1.150144264E-3	-8.866339922E-3	1.218795776E-2	1.511559228E-2
5.220102637E0	-1.066891942E-2	-1.830676198E-2	2.583503723E-3	2.134567561E-2
5.225126283E0	3.645345569E-3	8.377134800E-4	-1.644134521E-2	1.686143946E-2
5.230149929E0	-5.862169899E-3	-8.683562279E-3	-2.051353455E-3	1.067601708E-2
5.235173575E0	-1.037359238E-3	-3.872364759E-3	-1.628684998E-2	1.677297842E-2
5.240197221E0	-5.807486363E-3	-3.852307796E-3	2.852439880E-3	7.530178383E-3
5.245220866E0	-1.037241891E-3	-3.832340240E-3	-1.617431641E-2	1.665446528E-2
5.250244512E0	3.694696352E-3	-3.812611103E-3	-1.786231995E-3	5.601554186E-3
5.255268158E0	-5.813231692E-3	-8.544087410E-3	-1.127433777E-2	1.529397870E-2
5.260291804E0	-9.902743623E-4	-3.733992577E-3	-6.428718567E-3	7.500117752E-3
5.265315450E0	3.739827313E-3	9.833574295E-4	3.128051758E-3	4.973731794E-3
5.270339096E0	-1.017444767E-3	-1.334279776E-2	7.855415344E-3	1.551686167E-2
5.275362741E0	-5.736516789E-3	-1.799479127E-2	-1.121425629E-2	2.196542014E-2
5.280386387E0	-9.127547964E-4	-3.603965044E-3	3.131866455E-3	4.861097906E-3
5.285410033E0	3.870809451E-3	-8.337169886E-3	3.106117249E-3	9.702552853E-3
5.290433679E0	3.863478079E-3	-3.581523895E-3	-6.419181824E-3	8.304196022E-3
5.295457325E0	-9.489320219E-4	-3.563821316E-3	-6.365776062E-3	7.356928654E-3
5.300480971E0	-5.615910515E-3	1.152098179E-3	-1.559257507E-3	5.941133318E-3
5.305504616E0	3.903771751E-3	-1.317539811E-2	3.206253052E-3	1.411065583E-2
5.310528262E0	8.594533429E-3	-8.326798677E-3	-6.321907043E-3	1.353396061E-2
5.315551908E0	-9.556701407E-4	-3.465861082E-3	-1.519203186E-3	3.903008683E-3
5.320575554E0	3.829693422E-3	-8.200287819E-3	-1.506805420E-3	9.175060468E-3
5.325599200E0	8.521072567E-3	-8.144170046E-3	3.255844116E-3	1.222852012E-2
5.330622846E0	3.671292216E-3	1.360893250E-3	3.231048584E-3	5.076425112E-3
5.335646491E0	-1.085408963E-3	-8.217394352E-3	3.206253052E-3	8.887279740E-3
5.340670137E0	3.699593246E-3	5.986660719E-3	-6.319046021E-3	9.458194297E-3
5.345693783E0	3.641024232E-3	-1.313221455E-2	-1.101589203E-2	1.752318446E-2
5.350717429E0	-1.115424559E-3	-8.283972740E-3	8.080482483E-3	1.162594398E-2
5.355741075E0	-1.133868471E-3	1.274943352E-3	-6.239891052E-3	6.468954985E-3
5.360764773E0	-5.955854431E-3	6.003141403E-3	-1.093959808E-2	1.382695610E-2
5.365788471E0	-1.182927750E-3	5.888253450E-3	3.406524658E-3	6.904727149E-3
5.370812169E0	3.550224006E-3	-3.675103188E-3	1.288127899E-2	1.385777119E-2
5.375835866E0	-6.009165198E-3	-1.315873861E-2	-1.098155975E-2	1.816196914E-2
5.380859564E0	-1.181689091E-3	-3.664642572E-3	3.365516663E-3	5.113970737E-3
5.385883262E0	-1.199580729E-3	-3.698974848E-3	1.284217834E-2	1.341800855E-2
5.390906960E0	8.335961960E-3	-3.680288792E-3	3.232955933E-3	9.668753356E-3
5.395930658E0	3.487723880E-3	1.036554575E-3	-1.542091370E-3	3.951798203E-3
5.400954356E0	1.298420690E-2	-8.538961411E-3	3.223419189E-3	1.587116637E-2
5.405978054E0	3.451529890E-3	-3.781646490E-3	7.949829102E-3	9.455881318E-3
5.411001752E0	3.395029344E-3	-3.762334585E-3	-6.369590759E-3	8.139599021E-3
5.416025450E0	3.442883492E-3	-1.329782605E-2	7.938385010E-3	1.586516880E-2
5.421049148E0	8.137485944E-3	-8.500874043E-3	1.737594604E-2	2.098587711E-2
5.426072846E0	-1.460131258E-3	1.007169485E-3	-1.602363586E-2	1.612151606E-2
5.431096544E0	3.222665749E-3	9.865760803E-4	-1.637458801E-3	3.747022581E-3
5.436120241E0	3.169515170E-3	-8.535981178E-3	3.126144409E-3	9.627127295E-3
5.441143939E0	-6.334036589E-3	-3.726005554E-3	-6.402015686E-3	9.746227052E-3
5.446167637E0	-6.257771514E-3	-3.707110882E-3	-1.585006714E-2	1.743923748E-2
5.451191335E0	-1.098439470E-2	1.009941101E-3	3.287315369E-3	1.151014119E-2
5.456215033E0	3.331056796E-3	-3.761649132E-3	-1.490592957E-3	5.240974235E-3
5.461238731E0	-6.226505153E-3	1.008540392E-3	3.272056580E-3	7.105833829E-3
5.466262429E0	-1.503987238E-3	-8.461475372E-3	-1.100921631E-2	1.396643787E-2
5.471286127E0	-1.096859388E-2	-8.403182030E-3	-1.415252686E-3	1.388979698E-2
5.476309825E0	-1.090492774E-2	-3.646999598E-3	-6.153106689E-3	1.304142542E-2
5.481333523E0	-6.038095802E-3	-8.379846811E-3	-1.085281372E-2	1.498212265E-2
5.486357221E0	-1.263041981E-3	-3.623902798E-3	1.774597168E-2	1.815619612E-2
5.491380919E0	3.523441032E-3	-3.658562899E-3	3.347396851E-3	6.083155831E-3
5.496404616E0	-1.078675780E-2	-3.692954779E-3	-6.180763245E-3	1.296895883E-2
5.501428314E0	-5.973573774E-3	-8.425414562E-3	3.372192383E-3	1.086475382E-2
5.506452012E0	-5.898868665E-3	-1.311841607E-2	8.095741272E-3	1.650546935E-2
5.511475710E0	-5.823343992E-3	-3.571987152E-3	-1.471519470E-3	6.988261373E-3
5.516499408E0	3.699509427E-3	-8.358120918E-3	3.293037415E-3	9.715382169E-3
5.521523106E0	8.444637991E-3	-8.353352547E-3	-1.482963562E-3	1.197036301E-2
5.526546804E0	-5.908013321E-3	1.153528690E-3	-6.219863892E-3	8.655747032E-3
5.531570502E0	-1.135486178E-3	1.131713390E-3	-1.091957092E-2	1.103662689E-2
5.536594200E0	3.595828079E-3	-3.693580627E-3	3.426551819E-3	6.189812177E-3
5.541617898E0	-1.161688007E-3	5.827128887E-3	8.149147034E-3	1.008531345E-2
5.546641596E0	-1.179745421E-3	-3.735721111E-3	-6.172180176E-3	7.310486961E-3
5.551665294E0	-1.144989394E-3	1.034229994E-3	8.131980896E-3	8.277061416E-3
5.556688991E0	3.587846644E-3	-3.790289164E-3	8.066177368E-3	9.607400940E-3
5.561712689E0	-1.222266816E-3	9.801983833E-4	-1.502990723E-3	2.171107126E-3
5.566736387E0	-5.992296152E-3	-8.594870567E-3	-1.488685608E-3	1.058279727E-2
5.571760085E0	3.531966358E-3	-3.784418106E-3	8.025169373E-3	9.549866503E-3
5.576783783E0	-1.170909032E-3	-3.765076399E-3	-1.104640961E-2	1.172902355E-2
5.581807481E0	-1.137670130E-3	1.005202532E-3	-6.202697754E-3	6.385779896E-3
5.586831179E0	3.646324389E-3	-3.766357899E-3	1.285362244E-2	1.388152524E-2
5.591854877E0	-1.066489704E-2	-3.747165203E-3	-6.258010864E-3	1.292068016E-2
5.596878575E0	-1.050476916E-3	-3.780752420E-3	-1.452445984E-3	4.184159408E-3
5.601902273E0	-5.766386166E-3	-3.866851330E-3	-6.188392639E-3	9.300535043E-3
5.606925971E0	8.559690788E-3	-8.597880602E-3	8.115768433E-3	1.459649117E-2
5.611949669E0	-9.361142293E-4	-1.334211230E-2	-1.451492310E-3	1.345344196E-2
5.616973366E0	3.794981167E-3	-8.544802666E-3	-1.437187195E-3	9.459441933E-3
5.621997064E0	3.734173253E-3	-8.538395166E-3	1.282978058E-2	1.585722269E-2
5.627020762E0	3.673871979E-3	-8.532047272E-3	1.272487640E-2	1.575486101E-2
5.632044460E0	-1.082850620E-3	-1.317149401E-2	-1.635551453E-3	1.331675067E-2
5.637068158E0	3.649466671E-3	-2.257600427E-2	-1.622200012E-3	2.292653721E-2
5.642091856E0	-5.858085118E-3	-8.094340563E-3	1.739406586E-2	2.005963702E-2
5.647115554E0	-1.085975207E-3	1.462966204E-3	2.996444702E-3	3.506892231E-3
5.652139252E0	-1.060673036E-2	1.385897398E-3	-1.128005981E-2	1.554551993E-2
5.657162950E0	3.707016818E-3	-8.139938116E-3	7.818222046E-3	1.187961120E-2
5.662186648E0	8.452082984E-3	-3.333270550E-3	-1.125144958E-2	1.446179509E-2
5.667210294E0	-1.059755590E-2	-1.762345433E-2	-1.115608215E-2	2.339556588E-2
5.672233939E0	-1.034918241E-3	-3.288388252E-3	3.191947937E-3	4.698200155E-3
5.677257585E0	3.749663010E-3	-3.325849771E-3	7.918357849E-3	9.371320100E-3
5.682281231E0	-5.758724175E-3	-8.114039898E-3	-2.540302277E-2	2.728212076E-2
5.687304877E0	3.816255368E-3	1.390784979E-3	-1.093673706E-2	1.166663214E-2
5.692328523E0	3.756714985E-3	-8.187741041E-3	3.409385681E-3	9.632025828E-3
5.697352169E0	8.448703215E-3	-8.131712675E-3	-1.369476318E-3	1.180596470E-2
5.702375814E0	-1.152947545E-3	1.373320818E-3	-6.107330322E-3	6.365122291E-3
5.707399460E0	3.579954617E-3	6.100714207E-3	8.196830750E-3	1.082694893E-2
5.712423106E0	-1.175986603E-3	-8.268117905E-3	3.378868103E-3	9.008965969E-3
5.717446752E0	-5.893738009E-3	-8.158683777E-3	-1.400947571E-3	1.016183659E-2
5.722470398E0	-5.819698796E-3	1.346498728E-3	-6.138801575E-3	8.565444394E-3
5.727494044E0	3.755787387E-3	-3.480643034E-3	1.291847229E-2	1.389632114E-2
5.732517689E0	-5.752651021E-3	-3.463834524E-3	-6.193161011E-3	9.134899380E-3
5.737541335E0	-1.034080982E-3	-8.198201656E-3	-1.390457153E-3	8.379332012E-3
5.742564981E0	-1.105865464E-3	-8.247405291E-3	8.125305176E-3	1.163027156E-2
5.747588627E0	3.573981114E-3	-8.243560791E-3	8.059501648E-3	1.207001252E-2
5.752612273E0	-5.934384651E-3	-3.435969353E-3	-6.260871887E-3	9.285543784E-3
5.757635919E0	-1.056310721E-3	-3.419548273E-3	1.279544830E-2	1.328655712E-2
5.762659564E0	-5.775057711E-3	-1.290524006E-2	1.268863678E-2	1.899731602E-2
5.767683210E0	-9.509744123E-4	-8.111566305E-3	-1.592159271E-2	1.789410447E-2
5.772706856E0	3.727580421E-3	-8.056163788E-3	-1.535415649E-3	9.008558818E-3
5.777730502E0	-1.082255505E-3	-1.750329137E-2	-6.274223328E-3	1.862531514E-2
5.782754148E0	3.650056198E-3	-3.116548061E-3	-6.221771240E-3	7.857876267E-3
5.787777794E0	3.591899760E-3	-7.853806019E-3	-1.419067383E-3	8.752014917E-3
5.792801439E0	8.337923326E-3	-7.800549269E-3	8.094787598E-3	1.399625380E-2
5.797825085E0	-1.261363737E-3	-1.730245352E-2	8.028984070E-3	1.911623711E-2
5.802848731E0	3.473878838E-3	-1.717051864E-2	-1.539230347E-3	1.758589703E-2
5.807872377E0	3.415751271E-3	-7.537543774E-3	7.975578308E-3	1.149311847E-2
5.812896023E0	-6.091292948E-3	-2.683162689E-3	-1.593589783E-3	6.844175640E-3
5.817919669E0	-6.015609019E-3	-2.673000097E-3	-1.580238342E-3	6.769758829E-3
5.822943314E0	-1.189523377E-3	-2.715587616E-3	-6.316184998E-3	6.977361599E-3
5.827966960E0	-5.907157436E-3	-2.705097198E-3	3.237724304E-3	7.259126566E-3
5.832990606E0	3.616392612E-3	-1.700049639E-2	-1.537322998E-3	1.744874021E-2
5.838014252E0	3.609741107E-3	-2.670556307E-3	-6.274223328E-3	7.715437785E-3
5.843037898E0	-5.951584317E-3	2.037912607E-3	8.032798767E-3	1.020295544E-2
5.848061544E0	8.374595083E-3	-7.493287325E-3	-1.535415649E-3	1.134198832E-2
5.853085189E0	-1.172334887E-3	-2.744674683E-3	-1.102352142E-2	1.142040423E-2
5.858108835E0	-1.063970663E-2	-2.786666155E-3	-6.178855896E-3	1.261535277E-2
5.863132481E0	3.674315289E-3	-1.233035326E-2	1.287937164E-2	1.820484601E-2
5.868156127E0	-1.069124322E-2	-1.229241490E-2	-1.573181152E-2	2.264720821E-2
5.873179825E0	-1.129264012E-3	-2.752751112E-3	-2.035045624E-2	2.056681660E-2
5.878203523E0	-1.094930805E-3	6.760060787E-3	-5.928039551E-3	9.057535439E-3
5.883227221E0	-5.811916664E-3	-7.561594248E-3	-1.127243042E-3	9.603476441E-3
5.888250919E0	-1.040191390E-3	6.689667702E-3	-5.867004395E-3	8.958537417E-3
5.893274616E0	-9.553786367E-4	6.569117308E-3	8.437156677E-3	1.073553275E-2
5.898298314E0	8.579570800E-3	-2.999901772E-3	1.311779022E-2	1.595884915E-2
5.903322012E0	-1.023169607E-3	-7.738083601E-3	-1.549720764E-2	1.735189496E-2
5.908345710E0	-5.793415010E-3	-2.987444401E-3	1.313972473E-2	1.466768037E-2
5.913369408E0	3.781851381E-3	-2.974748611E-3	8.278846741E-3	9.575533015E-3
5.918393106E0	-5.726805888E-3	-3.014832735E-3	-1.554298401E-2	1.683656360E-2
5.923416804E0	3.847905435E-3	6.500154734E-3	-1.541328430E-2	1.716472315E-2
5.928440502E0	3.840763122E-3	-7.871985435E-3	-1.029968262E-3	8.819322575E-3
5.933464200E0	8.532050997E-3	1.683473587E-3	-1.052379608E-2	1.365211564E-2
5.938487898E0	-5.767223425E-3	-7.897496223E-3	-1.518440247E-2	1.806093549E-2
5.943511596E0	8.506195620E-3	-7.896542549E-3	8.698463440E-3	1.450427573E-2
5.948535294E0	-1.094492152E-3	1.606464386E-3	-8.735656738E-4	2.131140043E-3
5.953558991E0	-1.113109291E-3	1.633524895E-3	-5.618095398E-3	5.955704138E-3
5.958582689E0	3.619460389E-3	1.555055380E-3	-8.182525635E-4	4.023459705E-3
5.963606387E0	3.561560065E-3	-3.273814917E-3	1.819419861E-2	1.882634955E-2
5.968630085E0	-1.195670106E-3	-3.258675337E-3	-9.613037109E-4	3.601763010E-3
5.973653783E0	-1.213444397E-3	-8.047431707E-3	-9.517669678E-4	8.193867509E-3
5.978677481E0	-5.929441191E-3	-3.241539001E-3	-9.441375732E-4	6.823286869E-3
5.983701179E0	8.292668499E-3	-8.030444384E-3	3.815650940E-3	1.215794308E-2
5.988724877E0	-1.253578812E-3	-8.028388023E-3	-1.996898651E-2	2.155891686E-2
5.993748575E0	8.229753934E-3	-8.026301861E-3	-7.963180542E-4	1.152321543E-2
5.998772273E0	-1.087213587E-2	-1.277524233E-2	1.346492767E-2	2.151079804E-2
6.003795971E0	-1.307208091E-3	-3.178954124E-3	-9.002685547E-4	3.553171230E-3
6.008819669E0	-1.271392219E-3	-7.915705442E-3	3.857612610E-3	8.896966105E-3
6.013843366E0	3.515157849E-3	-7.861942053E-3	1.807880402E-2	2.002522465E-2
6.018867064E0	-1.292905770E-3	-1.261231303E-2	-1.073837280E-3	1.272380336E-2
6.023890762E0	8.193634450E-3	-7.821142673E-3	3.687858582E-3	1.191243968E-2
6.028914460E0	8.099055849E-3	-3.069847822E-3	3.659248352E-3	9.402593780E-3
6.033938158E0	-6.196610630E-3	-3.109127283E-3	3.630638123E-3	7.825994437E-3
6.038961856E0	-1.369016245E-3	-3.095418215E-3	3.600120544E-3	4.941324452E-3
6.043985554E0	-1.332684420E-3	-3.134489059E-3	3.572463989E-3	4.935946554E-3
6.049009252E0	8.152746595E-3	1.577794552E-3	1.304721832E-2	1.546565933E-2
6.054032950E0	-1.393775456E-3	1.499831676E-3	-6.064414978E-3	6.400721374E-3
6.059056648E0	-6.109710783E-3	-1.277789474E-2	-6.013870239E-3	1.538732579E-2
6.064080346E0	3.468191251E-3	1.569449902E-3	1.304054260E-2	1.358481781E-2
6.069104044E0	3.411550075E-3	-7.957905531E-3	-1.320838928E-3	8.758512992E-3
6.074127741E0	-6.041358225E-3	-1.270747185E-2	-1.081085205E-2	1.774407991E-2
6.079151439E0	3.483312204E-3	-3.164410591E-3	3.534317017E-3	5.885435844E-3
6.084175137E0	-1.273265108E-3	-7.901221514E-3	-5.996704102E-3	1.000054826E-2
6.089198835E0	-1.290393993E-3	-7.847577333E-3	3.555297852E-3	8.711471143E-3
6.094222533E0	-1.307379454E-3	1.655012369E-3	8.278846741E-3	8.543278664E-3
6.099246231E0	-1.378327608E-3	-1.262399554E-2	2.246284485E-2	2.580396189E-2
6.104269929E0	-1.396021806E-3	6.473183632E-3	-1.098155975E-2	1.282363591E-2
6.109293627E0	-1.359464601E-3	1.655995846E-3	-1.089000702E-2	1.109877106E-2
6.114317325E0	-1.375874504E-3	-3.173708916E-3	1.770877838E-2	1.804345562E-2
6.119341023E0	-1.392149366E-3	-3.159463406E-3	-1.441955566E-3	3.741593875E-3
6.124364721E0	3.342743963E-3	-7.896363735E-3	-6.181716919E-3	1.057072001E-2
6.129388419E0	-6.162253208E-3	-3.197073936E-3	-1.376152039E-3	7.077318757E-3
6.134412116E0	3.363424912E-3	1.568406820E-3	3.385543823E-3	5.023388704E-3
6.139435814E0	-1.390712336E-3	1.543134451E-3	-1.393318176E-3	2.501335698E-3
6.144459512E0	-6.157894619E-3	-8.036673069E-3	-1.379966736E-3	1.021822335E-2
6.149483210E0	-1.383285969E-3	1.467496157E-3	1.288604736E-2	1.304290005E-2
6.154506908E0	8.102566935E-3	-8.111685514E-3	3.277778625E-3	1.192454886E-2
6.159530606E0	3.254832700E-3	-3.357857466E-3	-1.575088501E-2	1.643044495E-2
6.164554304E0	7.951003499E-3	-3.342092037E-3	3.383636475E-3	9.264827663E-3
6.169578002E0	7.909670472E-3	-8.130162954E-3	3.356933594E-3	1.182926201E-2
6.174601700E0	3.064985387E-3	-8.074611425E-3	-1.092433929E-2	1.392604302E-2
6.179625346E0	-1.118873060E-2	-3.321170807E-3	3.421783447E-3	1.216250262E-2
6.184648991E0	3.182530403E-3	-8.109390736E-3	1.764774323E-2	1.968079162E-2
6.189672637E0	-6.321130320E-3	-8.106678724E-3	-1.501083374E-3	1.038884882E-2
6.194696283E0	-1.597824506E-3	-3.300279379E-3	3.261566162E-3	4.907412858E-3
6.199719929E0	3.191446885E-3	-3.284990788E-3	1.748752594E-2	1.807733557E-2
6.204743575E0	-1.613921486E-3	-1.282453537E-2	-1.659393311E-3	1.303177026E-2
6.209767221E0	-1.576988958E-3	1.575946808E-3	-1.114940643E-2	1.137012605E-2
6.214790866E0	3.105340526E-3	-1.270240545E-2	-1.553535461E-3	1.316843637E-2
6.219814512E0	3.104386851E-3	-7.857739925E-3	1.271247864E-2	1.526395780E-2
6.224838158E0	-6.397183985E-3	-3.106147051E-3	-6.396293640E-3	9.564762661E-3
6.229861804E0	-6.318950094E-3	-3.145128489E-3	3.160476685E-3	7.733665132E-3
6.234885450E0	-1.544440165E-3	-7.882088423E-3	7.885932922E-3	1.125613394E-2
6.239909096E0	-6.310342811E-3	1.673460007E-3	3.068923950E-3	7.213819307E-3
6.244932741E0	-1.535903662E-3	1.647353172E-3	-1.120948792E-2	1.143352054E-2
6.249956387E0	-1.552285627E-3	-3.076881170E-3	7.886886597E-3	8.606960473E-3
6.254980033E0	3.236606717E-3	-7.814496756E-3	7.821083069E-3	1.152004006E-2
6.260003679E0	-1.462368295E-3	-3.010600805E-3	-1.124858856E-2	1.173596962E-2
6.265027325E0	-1.530585811E-3	-3.050386906E-3	1.735305786E-2	1.768547908E-2
6.270050971E0	3.204020672E-3	-3.089785576E-3	-6.544113159E-3	7.914413460E-3
6.275074616E0	-1.654117368E-3	-3.128916025E-3	-6.487846375E-3	7.390424233E-3
6.280098262E0	3.135623410E-3	1.583337784E-3	-6.431579590E-3	7.328322368E-3
6.285121908E0	7.884008810E-3	-3.193050623E-3	7.875442505E-3	1.159205598E-2
6.290145554E0	-1.711496152E-3	-1.262801886E-2	3.057479858E-3	1.310512352E-2
6.295169200E0	-1.726414077E-3	-1.258760691E-2	3.033638000E-3	1.306259211E-2
6.300192846E0	-1.792432740E-3	6.456524134E-3	-6.491661072E-3	9.329586405E-3
6.305216491E0	2.997020259E-3	-3.111511469E-3	3.064155579E-3	5.296478402E-3
6.310240137E0	-6.505095400E-3	-1.740354300E-2	-1.121234894E-2	2.170060699E-2
6.315263783E0	-1.674929634E-3	-3.017634153E-3	3.133773804E-3	4.661763981E-3
6.320287429E0	-1.690152101E-3	-1.250666380E-2	-1.643180847E-3	1.272687302E-2
6.325311075E0	7.849481888E-3	-2.912551165E-3	-1.629829407E-3	8.529575845E-3
6.330334721E0	-1.691631973E-3	-2.900540829E-3	-1.111888885E-2	1.161483729E-2
6.335358366E0	-1.120734029E-2	-1.244327426E-2	7.980346680E-3	1.855061950E-2
6.340382012E0	3.058747388E-3	-2.849727869E-3	-6.339073181E-3	7.593466488E-3
6.345405658E0	3.059620038E-3	-2.838253975E-3	3.215789795E-3	5.268611241E-3
6.350429304E0	-6.443018094E-3	-2.879470587E-3	3.190994263E-3	7.745080852E-3
6.355452950E0	-1.613370143E-3	-2.867668867E-3	3.164291382E-3	4.565000317E-3
6.360476596E0	3.123367205E-3	-7.554352283E-3	-1.586627960E-2	1.784831896E-2
6.365500241E0	-1.679994166E-3	-2.805292606E-3	-6.230354309E-3	7.036288924E-3
6.370523887E0	7.808330469E-3	-2.794116735E-3	1.757621765E-2	1.943451929E-2
6.375547533E0	-6.484912708E-3	-7.534086704E-3	-1.573562622E-3	1.006442520E-2
6.380571231E0	-1.707579941E-3	1.965910196E-3	-6.309509277E-3	6.825726296E-3
6.385594929E0	-6.472123787E-3	-1.231575012E-2	-1.505851746E-3	1.399405863E-2
6.390618627E0	3.056134097E-3	-1.227799058E-2	8.009910583E-3	1.497490153E-2
6.395642325E0	-1.642778516E-3	-1.224055886E-2	-1.105976105E-2	1.657854990E-2
6.400666023E0	-1.604165882E-3	-2.648711205E-3	8.036613464E-3	8.612559155E-3
6.405689721E0	3.185157664E-3	-2.691507339E-3	-6.281852722E-3	7.539967820E-3
6.410713419E0	-1.567494124E-3	-2.733945847E-3	-1.476287842E-3	3.480075217E-3
6.415737116E0	-1.582172699E-3	-1.222541928E-2	-1.096630096E-2	1.649920919E-2
6.420760814E0	3.206967376E-3	-1.213574409E-2	3.377914429E-3	1.299889343E-2
6.425784512E0	7.957635447E-3	-7.348537445E-3	-6.150245667E-3	1.245594181E-2
6.430808210E0	-1.639922149E-3	-2.601087093E-3	-1.084804535E-2	1.127541958E-2
6.435831908E0	3.149698488E-3	2.106755972E-3	-1.550579071E-2	1.596209782E-2
6.440855606E0	3.094272688E-3	-7.425010204E-3	-1.123428345E-3	8.122031227E-3
6.445879304E0	7.793217897E-3	-2.677023411E-3	-1.536560059E-2	1.743566405E-2
6.450903002E0	-1.605606452E-2	-2.666860819E-3	-6.274795532E-2	6.482449577E-2
6.455926700E0	3.263323568E-3	2.094039321E-2	-5.848340988E-1	5.852179701E-1
6.460950398E0	1.422515213E-1	-8.287426829E-2	1.691007614E0	1.699002764E0
6.465974096E0	-9.392917156E-2	1.605284214E-1	-1.910126686E0	1.919160238E0
6.470997794E0	4.095984623E-2	-2.202726454E-1	1.450499535E0	1.467701144E0
6.476021491E0	-9.106827527E-2	2.236075401E-1	-9.418621063E-1	9.723157872E-1
6.481045189E0	5.736606568E-2	-2.293002307E-1	5.007896423E-1	5.537686585E-1
6.486068887E0	-9.010573477E-2	1.810818613E-1	-3.253097534E-1	3.830615089E-1
6.491092585E0	2.422096208E-2	-1.672120094E-1	3.567981720E-1	3.947802511E-1
6.496116283E0	-4.315511882E-2	1.140588224E-1	-4.253320694E-1	4.424693758E-1
6.501139981E0	-1.542269252E-2	-1.153746247E-1	5.141773224E-1	5.271882798E-1
6.506163679E0	2.102011815E-3	6.083610654E-2	-5.163145065E-1	5.198904884E-1
6.511187377E0	-3.288527206E-2	-5.449756980E-2	3.764543533E-1	3.817974677E-1
6.516211075E0	-1.592315733E-3	2.324730158E-3	-1.777830124E-1	1.778053411E-1
6.521234773E0	1.642054170E-1	4.959285259E-2	6.125736237E-2	1.821409741E-1
6.526258471E0	7.763065398E-3	1.168572903E-2	-5.784034729E-3	1.517486425E-2
6.531282169E0	-1.471676864E-2	-2.115440369E-2	2.750682831E-2	3.769240876E-2
6.536305866E0	-2.782171406E-2	2.975493670E-3	-7.725143433E-2	8.216255498E-2
6.541329564E0	-3.284625709E-3	-3.475372493E-2	1.324291229E-1	1.369528487E-1
6.546353262E0	-1.257640123E-2	2.258872986E-2	-1.869945526E-1	1.887733543E-1
6.551376960E0	-1.265730895E-2	-3.948043287E-2	1.803970337E-1	1.850999779E-1
6.556400658E0	-2.266095392E-2	8.083373308E-3	-1.299161911E-1	1.321252302E-1
6.561424356E0	-9.143391624E-3	-2.092358470E-2	8.972644806E-2	9.258635692E-2
6.566448054E0	-2.461338043E-2	-2.231210470E-3	-3.453445435E-2	4.246675563E-2
6.571471752E0	7.452022284E-3	-2.751439810E-3	-5.724906921E-3	9.791711618E-3
6.576495450E0	9.287932515E-2	3.526762128E-2	-2.943229675E-2	1.036177313E-1
6.581519148E0	-1.144458260E-2	-1.218017936E-2	-1.019477844E-2	1.957725077E-2
6.586542846E0	-1.084994525E-3	-1.182758808E-2	4.136085510E-3	1.257681423E-2
6.591566544E0	-2.929249406E-2	-6.937623024E-3	8.852005005E-3	3.137736149E-2
6.596590241E0	-5.699340254E-4	-2.109244466E-2	-1.972866058E-2	2.888660753E-2
6.601613939E0	-2.931118943E-2	-1.163738966E-2	4.197120667E-3	3.181494123E-2
6.606637637E0	-1.220384613E-3	-1.656696200E-2	3.742790222E-2	4.094876596E-2
6.611661335E0	-1.975206658E-3	2.299726009E-3	-4.364204407E-2	4.374720781E-2
6.616685033E0	5.972427875E-2	2.215683460E-3	8.984565735E-3	6.043691874E-2
6.621708731E0	-6.737803109E-3	2.290397882E-3	-3.860378265E-2	3.925424752E-2
6.626732429E0	-6.286694668E-3	-1.188871264E-2	3.773212433E-2	4.005717445E-2
6.631756127E0	-2.035716362E-2	-7.050842047E-3	-2.909660339E-2	3.620415464E-2
6.636779825E0	-1.369103789E-3	-2.136269212E-2	9.157180786E-3	2.328289114E-2
6.641803523E0	-1.125610713E-2	-2.350717783E-3	1.858711243E-2	2.185649949E-2
6.646827221E0	2.660757676E-2	-2.395987511E-3	-1.007175446E-2	2.855072915E-2
6.651850919E0	7.563177496E-3	2.362877131E-3	-5.236625671E-3	9.497741342E-3
6.656874616E0	-1.766359434E-3	-2.262085676E-3	1.855754852E-2	1.877816989E-2
6.661898314E0	-6.372433156E-3	-7.006466389E-3	4.149436951E-3	1.034003397E-2
6.666922012E0	-6.452388130E-3	7.240146399E-3	-5.385398865E-3	1.109304076E-2
6.671945710E0	3.021611832E-3	-1.194179058E-2	4.163742065E-3	1.300281694E-2
6.676969408E0	2.916033380E-3	2.345949411E-3	8.882522583E-3	9.638772575E-3
6.681993106E0	-6.481528282E-3	-2.436786890E-3	4.056930542E-3	8.025386261E-3
6.687016804E0	3.150693141E-3	-2.428621054E-3	4.023551941E-3	5.658094884E-3
6.692040450E0	-1.110373903E-2	-1.197528839E-2	2.299594879E-2	2.820486152E-2
6.697064096E0	-6.394673139E-3	-1.199296117E-2	-9.469985962E-4	1.362423460E-2
6.702087741E0	-1.618091948E-3	-2.403169870E-3	-1.519203186E-2	1.546581000E-2
6.707111387E0	3.171345219E-3	-7.146388292E-3	1.819133759E-2	1.980032978E-2
6.712135033E0	-1.477308571E-3	-2.295285463E-3	1.328849792E-2	1.356594829E-2
6.717158679E0	3.310956061E-3	-7.039397955E-3	8.426666260E-3	1.146840259E-2
6.722182325E0	3.255624324E-3	-2.241909504E-3	-1.064777374E-2	1.135783138E-2
6.727205971E0	7.951786742E-3	2.515614033E-3	1.794719696E-2	1.979042963E-2
6.732229616E0	-1.591621898E-3	2.429783344E-3	-1.203536987E-3	3.144138777E-3
6.737253262E0	3.197595477E-3	-7.104754448E-3	-1.544666290E-2	1.730033374E-2
6.742276908E0	3.195870668E-3	-1.186141372E-2	1.319026947E-2	1.802470342E-2
6.747300554E0	3.141497262E-3	-7.023781538E-3	3.577232361E-3	8.485228547E-3
6.752324200E0	-1.716116443E-3	-1.178112626E-2	-5.952835083E-3	1.331075645E-2
6.757347846E0	-1.678328961E-3	-6.996750832E-3	-1.150131226E-3	7.286570671E-3
6.762371491E0	-1.586760394E-3	2.498745918E-3	1.311397552E-2	1.344387942E-2
6.767395137E0	-1.602714881E-3	-1.183995605E-2	-5.997657776E-3	1.336881270E-2
6.772418783E0	-1.564437523E-3	-7.055163383E-3	-1.194000244E-3	7.324508974E-3
6.777442429E0	-1.580577344E-3	-7.008522749E-3	3.566741943E-3	8.021175971E-3
6.782466075E0	3.155885264E-3	-6.962329149E-3	1.303958893E-2	1.511504279E-2
6.787489721E0	-6.400220096E-3	2.585560083E-3	-1.082515717E-2	1.283869019E-2
6.792513366E0	-6.321963854E-3	-2.199232578E-3	8.269309998E-3	1.063885984E-2
6.797537012E0	-6.297022104E-3	-1.174780726E-2	1.770401001E-2	2.216067312E-2
6.802560658E0	-1.521255821E-3	-2.212733030E-3	-1.094818115E-2	1.127266948E-2
6.807584304E0	-1.641645096E-3	-1.176121831E-2	3.397941589E-3	1.235181209E-2
6.812607950E0	3.095326945E-3	-1.172807813E-2	8.122444153E-3	1.459804660E-2
6.817631596E0	-1.658013090E-3	-1.164248586E-2	3.303527832E-3	1.221514554E-2
6.822655241E0	-1.724601723E-3	1.219749451E-2	-1.097679138E-2	1.649979007E-2
6.827678887E0	-1.685308293E-3	-2.169460058E-3	-1.088523865E-2	1.122654183E-2
6.832702533E0	-1.646342687E-3	-1.166564226E-2	-1.292228699E-3	1.185189895E-2
6.837726179E0	-6.360169500E-3	-2.025872469E-3	-1.553535461E-2	1.690867110E-2
6.842749825E0	3.219817765E-3	-6.772220135E-3	-1.152992249E-3	7.586803221E-3
6.847773471E0	7.916278206E-3	-1.976966858E-3	8.358001709E-3	1.168041314E-2
6.852797116E0	-1.679496840E-3	-2.025365829E-3	-2.021598816E-2	2.038649047E-2
6.857820762E0	-1.693241298E-3	-6.771743298E-3	-1.043319702E-3	7.057768017E-3
6.862844408E0	3.096821718E-3	-1.976490021E-3	-1.034736633E-3	3.816739113E-3
6.867868054E0	-6.406130269E-3	-1.972228289E-3	-1.052856445E-2	1.248114013E-2
6.872891700E0	-6.329259835E-3	-6.718963385E-3	-9.384155273E-4	9.278179925E-3
6.877915346E0	-1.105528977E-2	-1.976817846E-3	8.572578430E-3	1.412856474E-2
6.882938991E0	-1.488837413E-3	-6.776243448E-3	-9.984970093E-4	7.009358629E-3
6.887962637E0	-1.504170708E-3	-1.980930567E-3	-1.999473572E-2	2.014884790E-2
6.892986283E0	3.231657669E-3	-6.780326366E-3	-8.220672607E-4	7.555940147E-3
6.898009981E0	3.229647875E-3	-1.984983683E-3	1.818847656E-2	1.857932898E-2
6.903033679E0	3.174994141E-3	-1.153534651E-2	-9.651184082E-4	1.200317710E-2
6.908057377E0	-8.720291406E-2	-3.504852951E-2	-5.425786972E-1	5.506581429E-1
6.913081075E0	2.039947361E-1	9.335124493E-2	1.452629089E0	1.469850189E0
6.918104773E0	-1.289876997E-1	-9.647886455E-2	-1.419626236E0	1.428735332E0
6.923128471E0	1.062812954E-1	8.010113239E-2	9.677190781E-1	9.768275791E-1
6.928152169E0	-1.269073337E-1	-7.213743031E-2	-5.844440460E-1	6.023986414E-1
6.933175866E0	6.442706287E-2	2.347216010E-2	3.563804626E-1	3.629171019E-1
6.938199564E0	-3.126357496E-2	-2.429863811E-2	-2.927284241E-1	2.953942538E-1
6.943223262E0	-4.100677744E-2	-1.956793666E-2	3.368539810E-1	3.399044932E-1
6.948246960E0	2.017516643E-2	-1.508742571E-2	-3.263339996E-1	3.273049756E-1
6.953270658E0	-5.244611576E-2	-6.051063538E-3	2.797842026E-1	2.847216368E-1
6.958294356E0	2.709792741E-2	-2.068731189E-2	-1.643810272E-1	1.678790775E-1
6.963318054E0	6.437864900E-2	5.987176299E-2	8.037567139E-3	8.828273294E-2
6.968341752E0	6.993472576E-2	-1.612922549E-2	3.170967102E-2	7.846350119E-2
6.973365450E0	-5.774237216E-2	8.064121008E-3	-5.883312225E-2	8.282842425E-2
6.978389148E0	5.160549656E-3	-2.500921488E-2	6.517601013E-2	7.000003142E-2
6.983412846E0	-1.829812676E-2	3.851234913E-3	7.616043091E-3	2.019053158E-2
6.988436544E0	-8.669895120E-3	-1.524987817E-2	-9.221649170E-2	9.387016143E-2
6.993460241E0	-2.799958549E-2	-5.738228559E-3	1.271028519E-1	1.302767785E-1
6.998483939E0	-9.527223185E-3	-6.018638611E-3	-1.400041580E-1	1.404569552E-1
7.003507637E0	-1.992554590E-2	-2.070772648E-2	8.922672272E-2	9.374030810E-2
7.008531335E0	1.236400567E-2	7.537513971E-3	-2.077770233E-2	2.532579056E-2
7.013555033E0	8.840630949E-2	2.171564102E-2	-5.861282349E-2	1.082714538E-1
7.018578731E0	-1.112925448E-2	-6.667762995E-3	4.163742065E-2	4.361185810E-2
7.023602429E0	-1.507799048E-2	-1.111209393E-2	-2.048110962E-2	2.775428399E-2
7.028626127E0	-1.941513643E-2	3.274053335E-3	-1.306533813E-3	1.973256137E-2
7.033649825E0	-1.928108558E-2	-6.267517805E-3	3.196048737E-2	3.784857716E-2
7.038673523E0	-4.614433274E-4	-1.113644242E-2	-2.531337738E-2	2.765863977E-2
7.043697221E0	-1.542306039E-2	-6.515502930E-3	4.141902924E-2	4.467503277E-2
7.048720919E0	7.695573382E-3	7.516384125E-3	-2.068138123E-2	2.331174402E-2
7.053744616E0	4.091359302E-2	7.441550493E-3	-2.050876617E-2	4.636710319E-2
7.058768314E0	7.919636555E-3	-1.924067736E-3	2.241516113E-2	2.385083077E-2
7.063792012E0	-1.081101689E-2	-6.618559361E-3	-1.578140259E-2	2.024193869E-2
7.068815710E0	-2.484520897E-2	-6.575554609E-3	3.353118896E-3	2.591844389E-2
7.073839408E0	-1.542859431E-2	-6.638228893E-3	8.080482483E-3	1.863871783E-2
7.078863106E0	-1.105070952E-2	-2.002060413E-3	-2.048778534E-2	2.336398457E-2
7.083886804E0	2.681124583E-2	-1.160496473E-2	3.441810608E-3	2.941707276E-2
7.088910502E0	1.721743681E-2	7.483601570E-3	-1.083946228E-2	2.167806184E-2
7.093934200E0	-6.392968819E-3	-2.040386200E-3	1.300430298E-2	1.463369817E-2
7.098957898E0	-1.571150869E-2	-1.982927322E-3	3.392219543E-3	1.619539007E-2
7.103981596E0	-6.211584434E-3	-1.153331995E-2	-1.384735107E-3	1.317265127E-2
7.109005294E0	-6.294324063E-3	-6.751000881E-3	-1.087379456E-2	1.426302690E-2
7.114028991E0	3.233886324E-3	-6.812334061E-3	8.224487305E-3	1.115832010E-2
7.119052689E0	-6.217542104E-3	-6.767779589E-3	-6.096839905E-3	1.102869563E-2
7.124076387E0	8.270278573E-3	-1.147460938E-2	8.207321167E-3	1.635311251E-2
7.129100085E0	-5.974153057E-3	1.231130958E-2	-1.360893250E-3	1.375175911E-2
7.134123783E0	-1.202512532E-3	-1.630961895E-2	2.240562439E-2	2.773917286E-2
7.139147481E0	3.478134051E-3	-6.736546755E-3	7.967948914E-3	1.099848574E-2
7.144171179E0	8.225103840E-3	2.809464931E-3	3.149986267E-3	9.244881820E-3
7.149194877E0	3.483116627E-3	-1.977175474E-3	3.123283386E-3	5.078998268E-3
7.154218575E0	-6.023052149E-3	-6.776601076E-3	1.260185242E-2	1.552437321E-2
7.159242273E0	-6.000602618E-3	2.717077732E-3	2.996444702E-3	7.236603073E-3
7.164265971E0	-5.979775451E-3	-6.819784641E-3	-1.778602600E-3	9.242867748E-3
7.169289669E0	-5.906456150E-3	-6.827771664E-3	2.199268341E-2	2.377357385E-2
7.174313366E0	-5.832312629E-3	-6.835758686E-3	-6.694793701E-3	1.120552230E-2
7.179337064E0	-1.007754356E-3	-2.092629671E-3	-1.138877869E-2	1.162320729E-2
7.184360762E0	-1.052916422E-2	-6.838440895E-3	-1.791000366E-3	1.268208403E-2
7.189384460E0	-9.685344994E-4	-2.042561769E-3	-1.775741577E-3	2.874608809E-3
7.194408158E0	-5.739239044E-3	-6.841450930E-3	-1.601219177E-2	1.833397396E-2
7.199431856E0	-5.666489713E-3	-1.154765487E-2	1.262760162E-2	1.802536439E-2
7.204455554E0	3.906284459E-3	-1.961529255E-3	7.771492004E-3	8.916431083E-3
7.209479252E0	-1.040710881E-2	-1.151210070E-2	-1.604652405E-2	2.232324596E-2
7.214502898E0	8.710102178E-3	-1.142844558E-2	-1.659393311E-3	1.446474453E-2
7.219526544E0	-8.922899142E-4	-1.609644294E-2	7.856369019E-3	1.793360507E-2
7.224550189E0	-5.612398498E-3	-6.472408772E-3	3.039360046E-3	9.090038597E-3
7.229573835E0	-8.423393592E-4	-6.483346224E-3	-1.598739624E-2	1.727252594E-2
7.234597481E0	-5.561430939E-3	-1.795828342E-3	-6.349563599E-3	8.629685476E-3
7.239621127E0	-5.488730967E-3	-1.604619622E-2	3.205299377E-3	1.725921565E-2
7.244644773E0	-6.670374423E-4	-6.422638893E-3	-2.532768250E-2	2.613784096E-2
7.249668419E0	-5.387591198E-3	-6.486654282E-3	-1.358032227E-3	8.540905936E-3
7.254692064E0	8.884092793E-3	-6.444871426E-3	1.290607452E-2	1.694196659E-2
7.259715710E0	4.031284712E-3	3.046035767E-3	-1.095485687E-2	1.206393300E-2
7.264739356E0	8.720980957E-3	-6.493628025E-3	-1.360893250E-3	1.095786221E-2
7.269763002E0	-4.844448715E-2	-1.590108871E-2	-1.391305923E-1	1.481790629E-1
7.274786648E0	9.467307478E-2	5.986711383E-2	1.803588867E-1	2.123120120E-1
7.279810294E0	-3.394750506E-2	-9.669072926E-2	1.360759735E-1	1.703472946E-1
7.284833939E0	3.392961621E-2	1.272432506E-1	-3.401575089E-1	3.647590911E-1
7.289857585E0	-7.570870221E-2	-1.728810370E-1	2.565498352E-1	3.184925093E-1
7.294881231E0	-3.682059236E-3	1.277044713E-1	-1.684255600E-1	2.113981051E-1
7.299904877E0	-4.207143560E-3	-1.490370929E-1	3.252410889E-2	1.526026631E-1
7.304928523E0	-5.709454417E-2	9.412676096E-2	8.452606201E-2	1.387958546E-1
7.309952169E0	6.118135154E-2	-8.747237921E-2	-4.919815063E-2	1.175373682E-1
7.314975814E0	1.307934709E-2	7.937255502E-2	-4.403209686E-2	9.170549255E-2
7.319999460E0	5.190019310E-2	-5.390876532E-2	1.083545685E-1	1.316833229E-1
7.325023106E0	-5.234545469E-2	1.800441742E-2	-1.871175766E-1	1.951337827E-1
7.330046752E0	-8.914404549E-3	-4.381595552E-2	2.087745667E-1	2.135090730E-1
7.335070398E0	-8.919104002E-3	8.850961924E-3	-1.682977676E-1	1.687661949E-1
7.340094044E0	-1.869053766E-2	-2.950656414E-2	9.441852570E-2	1.006719003E-1
7.345117689E0	-1.454877667E-2	8.472055197E-3	-6.131172180E-3	1.791741874E-2
7.350141335E0	2.286693454E-2	-6.127119064E-3	-5.358219147E-2	5.857891707E-2
7.355164981E0	5.136547238E-2	2.247059345E-2	4.663562775E-2	7.292613453E-2
7.360188627E0	-1.502548438E-2	-1.077541709E-2	-4.877948761E-2	5.216620751E-2
7.365212273E0	-1.931185462E-2	-1.143068075E-3	-1.986885071E-2	2.773131013E-2
7.370235919E0	-1.917866245E-2	-5.896776915E-3	5.631351471E-2	5.978130987E-2
7.375259564E0	-3.598546609E-4	-1.076880097E-2	-5.342483521E-2	5.450054666E-2
7.380283210E0	3.945160657E-3	-1.347184181E-3	4.679775238E-2	4.698306956E-2
7.385306856E0	2.283601090E-2	3.350198269E-3	-4.861164093E-2	5.381262729E-2
7.390330502E0	8.680828847E-3	3.468036652E-3	-7.009506226E-4	9.374187936E-3
7.395354148E0	-1.485702768E-2	-1.082620025E-2	-6.952285767E-4	1.839622858E-2
7.400377794E0	-1.000992768E-2	-1.074817777E-2	-1.494216919E-2	2.095209769E-2
7.405401439E0	-6.115939468E-4	-1.274049282E-3	2.319431305E-2	2.323732787E-2
7.410425085E0	8.711278439E-3	3.422677517E-3	3.998756409E-3	1.017797358E-2
7.415448783E0	3.859910183E-3	-1.369088888E-3	-2.929115295E-2	2.957608751E-2
7.420472481E0	3.957980312E-3	3.328472376E-3	2.321529388E-2	2.378432691E-2
7.425496179E0	-1.019642968E-2	-1.091194153E-2	-7.343292236E-4	1.495248760E-2
7.430519877E0	-6.371354684E-4	-1.331180334E-3	-7.286071777E-4	1.645858775E-3
7.435543575E0	4.038805142E-3	3.366082907E-3	1.828289032E-2	1.902384135E-2
7.440567273E0	3.924746066E-3	3.325819969E-3	-8.726119995E-4	5.217869475E-3
7.445590971E0	4.022280686E-3	-6.216168404E-3	2.288913727E-2	2.405685134E-2
7.450614669E0	4.066342488E-3	-1.087492704E-2	-2.481269836E-2	2.739469254E-2
7.455638366E0	4.057374783E-3	-5.992829800E-3	1.340198517E-2	1.523120171E-2
7.460662064E0	-5.452152342E-3	-1.256793737E-3	-9.613037109E-4	5.677111984E-3
7.465685762E0	-6.307661533E-4	-1.258522272E-3	-1.520633698E-2	1.527135974E-2
7.470709460E0	-5.351623520E-3	-1.556599140E-2	-5.576133728E-3	1.737910326E-2
7.475733158E0	8.970988914E-3	3.555625677E-3	8.723258972E-3	1.300831900E-2
7.480756856E0	4.117456265E-3	3.513783216E-3	-1.035404205E-2	1.168359129E-2
7.485780554E0	8.805003949E-3	-1.083338261E-2	3.987312317E-3	1.451857199E-2
7.490804252E0	-7.981779054E-4	-1.253277063E-3	-5.547523499E-3	5.743066109E-3
7.495827950E0	3.930333070E-3	-1.075702906E-2	-7.495880127E-4	1.147706732E-2
7.500851648E0	3.869838081E-3	-5.928575993E-3	-7.429122925E-4	7.118678160E-3
7.505875346E0	3.809848800E-3	-5.944043398E-3	-7.352828979E-4	7.098397054E-3
7.510899044E0	-1.000673510E-3	-1.155674458E-3	1.352405548E-2	1.361018029E-2
7.515922741E0	-9.688464925E-4	-1.158177853E-3	3.909111023E-3	4.190607170E-3
7.520946439E0	-9.358543903E-4	-1.160740852E-3	3.876686096E-3	4.153533177E-3
7.525970137E0	8.597496897E-3	-1.071792841E-2	8.597373962E-3	1.620820105E-2
7.530993835E0	-1.045335922E-2	3.559589386E-3	-9.737014771E-4	1.108564343E-2
7.536017533E0	-5.590296350E-3	-6.037026644E-3	-9.641647339E-4	8.284124433E-3
7.541041231E0	-8.204197511E-4	-6.051599979E-3	3.796577454E-3	7.190893633E-3
7.546064929E0	3.909708001E-3	-1.262336969E-3	8.516311646E-3	9.455520891E-3
7.551088627E0	-5.548787303E-3	3.487080336E-3	-5.807876587E-3	8.756723146E-3
7.556112325E0	-7.280260324E-4	-6.108850241E-3	3.744125366E-3	7.201843370E-3
7.561136023E0	4.001331516E-3	3.379255533E-3	8.465766907E-3	9.954859676E-3
7.566159721E0	-5.561820231E-3	-1.091420650E-2	-1.060962677E-2	1.620549068E-2
7.571183419E0	3.957420588E-3	-6.084382534E-3	-1.527118683E-2	1.690828305E-2
7.576207116E0	-8.557625115E-4	-6.045818329E-3	8.610725403E-3	1.055598601E-2
7.581230814E0	3.927321173E-3	-1.309275627E-3	3.789901733E-3	5.612611639E-3
7.586254512E0	-5.583982915E-3	-6.114214659E-3	-5.741119385E-3	1.007595841E-2
7.591278210E0	-5.512529984E-3	-6.075471640E-3	3.808021545E-3	9.044355729E-3
7.596301908E0	4.007730633E-3	-1.286000013E-3	-9.737014771E-4	4.320161505E-3
7.601325606E0	-1.030650642E-2	-1.078954339E-2	8.536338806E-3	1.719032871E-2
7.606349304E0	4.004736431E-3	3.541231155E-3	-1.036643982E-3	5.445444217E-3
7.611373002E0	-8.074110374E-4	-1.080623269E-2	1.797771454E-2	2.099106471E-2
7.616396700E0	3.975269385E-3	8.223056793E-3	-1.542663574E-2	1.792770259E-2
7.621420398E0	3.912968561E-3	-6.163388491E-3	8.458137512E-3	1.117312717E-2
7.626444096E0	3.905279562E-3	-6.176888943E-3	1.314067841E-2	1.503604318E-2
7.631467794E0	-5.604409613E-3	-1.569232345E-2	3.530502319E-3	1.703299354E-2
7.636491491E0	-8.344165981E-4	-1.092806458E-2	-2.025127411E-2	2.302678765E-2
7.641515189E0	-8.025439456E-4	-1.347154379E-3	-1.078605652E-3	1.903231951E-3
7.646538887E0	-5.574631505E-3	-1.554855704E-2	3.680229187E-3	1.692271342E-2
7.651562585E0	-1.025428902E-2	-1.073282957E-2	-1.098632812E-3	1.488459163E-2
7.656586283E0	-6.418526173E-4	3.544807434E-3	-5.839347839E-3	6.861167373E-3
7.661609981E0	-6.642453372E-4	-1.247972250E-3	-1.039505005E-3	1.754772709E-3
7.666633679E0	8.866843767E-3	-1.249730587E-3	-1.030921936E-3	9.013631065E-3
7.671657377E0	-6.841924042E-4	3.499507904E-3	-1.052474976E-2	1.111238193E-2
7.676681075E0	1.359952614E-2	-6.043940783E-3	2.757167816E-2	3.133167356E-2
7.681704773E0	-7.419819012E-4	-6.058454514E-3	8.339881897E-3	1.033484583E-2
7.686728471E0	-7.123099640E-4	-1.321732998E-3	-1.073169708E-2	1.083622101E-2
7.691752169E0	-1.498721447E-2	-6.126612425E-3	3.612518311E-3	1.658922138E-2
7.696775866E0	-6.369668990E-4	-1.336723566E-3	3.582000732E-3	3.875988386E-3
7.701799564E0	-6.067389622E-4	-1.089251041E-2	-5.948066711E-3	1.242555483E-2
7.706823262E0	-5.380458198E-3	-1.417219639E-3	-5.895614624E-3	8.106547584E-3
7.711846960E0	8.942395449E-3	-1.417607069E-3	-5.846023560E-3	1.077738547E-2
7.716870658E0	4.141762853E-3	-1.092004776E-2	-1.054859161E-2	1.573767542E-2
7.721894356E0	4.079505801E-3	3.411829472E-3	-1.046085358E-2	1.173509290E-2
7.726918054E0	-6.806040183E-4	3.318518400E-3	3.881454468E-3	5.151841902E-3
7.731941700E0	-5.401046015E-3	-6.276071072E-3	8.602142334E-3	1.193973278E-2
7.736965346E0	-5.800863728E-4	-1.537591219E-3	-1.522254944E-2	1.531099926E-2
7.741988991E0	4.148039035E-3	-1.484304667E-3	3.907203674E-3	5.888601594E-3
7.747012637E0	4.085729830E-3	-1.484155655E-3	8.625984192E-3	9.659374179E-3
7.752036283E0	8.826201782E-3	-6.234973669E-3	8.554458618E-3	1.378243436E-2
7.757059929E0	-7.244963199E-4	-1.391530037E-3	-1.052188873E-2	1.063820442E-2
7.762083575E0	-6.935400888E-4	-6.248503923E-3	3.821372986E-3	7.357152345E-3
7.767107221E0	1.353616454E-2	-6.208568811E-3	3.789901733E-3	1.536676388E-2
7.772130866E0	3.946215846E-3	3.280371428E-3	-1.049327850E-2	1.168085399E-2
7.777154512E0	3.936817870E-3	3.188222647E-3	8.600234985E-3	9.981349627E-3
7.782178158E0	3.928930499E-3	-6.352633238E-3	1.803016663E-2	1.951613057E-2
7.787201804E0	3.868448548E-3	7.941216230E-3	-1.062583923E-2	1.381796905E-2
7.792225450E0	3.808470443E-3	3.059118986E-3	-5.784034729E-3	7.570846309E-3
7.797249096E0	3.747559153E-3	3.021478653E-3	1.801872253E-2	1.865068081E-2
7.802272741E0	3.792477772E-3	3.036826849E-3	3.614425659E-3	6.055516312E-3
7.807296387E0	-1.051996462E-2	-1.804381609E-3	-1.164436340E-3	1.073691579E-2
7.812320033E0	3.793057986E-3	2.896815538E-3	-1.152992249E-3	4.910012248E-3
7.817343679E0	8.535969071E-3	-6.641536951E-3	8.358001709E-3	1.366853956E-2
7.822367325E0	-1.066404395E-3	2.903729677E-3	-1.546669006E-2	1.577299483E-2
7.827390971E0	-5.837724544E-3	-1.133301854E-2	3.664970398E-3	1.326455220E-2
7.832414616E0	1.329263579E-2	-1.696079969E-3	1.313591003E-2	1.876494034E-2
7.837438262E0	-5.904103629E-3	-6.445139647E-3	-1.072883606E-2	1.383857608E-2
7.842461908E0	-1.073900051E-2	-1.595833898E-2	8.366584778E-3	2.097604481E-2
7.847485554E0	8.328310214E-3	-1.584529877E-3	1.779842377E-2	1.971434439E-2
7.852509200E0	-1.072030142E-2	-1.583662629E-2	-1.353263855E-3	1.917172183E-2
7.857532846E0	-1.158075407E-3	3.234654665E-3	-6.091117859E-3	6.993271496E-3
7.862556491E0	-5.927199498E-3	-1.608222723E-3	8.214950562E-3	1.025687511E-2
7.867580137E0	-1.155948266E-3	-1.554310322E-3	1.289653778E-2	1.304119564E-2
7.872603783E0	-5.872426555E-3	-1.606225967E-3	-1.096439362E-2	1.254126321E-2
7.877627429E0	3.650832921E-3	3.145992756E-3	3.379821777E-3	5.886344085E-3
7.882651075E0	-1.158365048E-3	-1.643478870E-3	1.285457611E-2	1.301087850E-2
7.887674721E0	3.574577160E-3	-1.114404202E-2	7.996559143E-3	1.417435122E-2
7.892698366E0	-1.233986579E-3	3.189712763E-3	-1.571655273E-3	3.763919591E-3
7.897722012E0	8.303282782E-3	-1.115483046E-2	3.193855286E-3	1.426798721E-2
7.902745658E0	3.560641780E-3	-1.107406616E-2	-1.583099365E-3	1.173964713E-2
7.907769304E0	-1.074987091E-2	-6.242990494E-3	-6.320953369E-3	1.394593512E-2
7.912792950E0	-5.936999805E-3	-1.504808664E-3	-1.515388489E-3	6.309422959E-3
7.917816596E0	3.585364670E-3	3.246635199E-3	-6.254196167E-3	7.906355015E-3
7.922840241E0	3.631638363E-3	-1.596271992E-3	-1.095199585E-2	1.164830866E-2
7.927863887E0	-5.928432569E-3	-1.647830009E-3	-1.356124878E-3	6.300851621E-3
7.932887585E0	-1.103075221E-3	-1.646310091E-3	1.290798187E-2	1.305921544E-2
7.937911283E0	-5.819994025E-3	3.158897161E-3	-1.453399658E-3	6.779626265E-3
7.942934981E0	-5.748005584E-3	-6.381660700E-3	-1.441001892E-3	8.708711037E-3
7.947958679E0	3.828312270E-3	-1.642376184E-3	3.323554993E-3	5.329108008E-3
